"Time (s)","Linear Acceleration x (m/s^2)","Linear Acceleration y (m/s^2)","Linear Acceleration z (m/s^2)","Absolute acceleration (m/s^2)"
4.919869300E-2,9.847419858E-1,-1.134124994E0,-2.770781994E0,3.151696232E0
5.419869400E-2,1.007727027E0,-1.179481983E0,-2.742980003E0,3.151290340E0
5.914300100E-2,1.117692947E0,-1.141111970E0,-2.773646116E0,3.200700991E0
6.408276900E-2,1.284986973E0,-1.082502007E0,-2.827565908E0,3.289092745E0
6.902276900E-2,1.290573001E0,-9.797800183E-1,-2.658207893E0,3.113136161E0
7.396269500E-2,1.258013010E0,-9.325760007E-1,-2.562819958E0,3.003388231E0
7.890269500E-2,1.197518945E0,-8.754000068E-1,-2.393608093E0,2.815978782E0
8.384269500E-2,1.189211965E0,-8.725370169E-1,-2.349342108E0,2.773978061E0
8.878250200E-2,1.172471046E0,-8.575199842E-1,-2.325980902E0,2.742301229E0
9.372250200E-2,1.130521059E0,-7.999910116E-1,-2.246473074E0,2.639072708E0
9.866250200E-2,1.116042972E0,-7.845349908E-1,-2.213464022E0,2.600090391E0
1.036024150E-1,1.124009013E0,-7.862799764E-1,-2.213470936E0,2.604051852E0
1.085424150E-1,1.100559950E0,-7.486349940E-1,-2.178003073E0,2.552525013E0
1.134824150E-1,9.731439948E-1,-7.002390027E-1,-2.018501043E0,2.347698949E0
1.184224340E-1,8.147199750E-1,-6.254929900E-1,-1.825657010E0,2.094763384E0
1.233622040E-1,9.525579810E-1,-5.045229793E-1,-1.532289982E0,1.873452090E0
1.283022080E-1,1.192546964E0,-3.633170128E-1,-1.245319963E0,1.762097989E0
1.332422080E-1,1.377514005E0,-1.790200025E-1,-8.222590089E-1,1.614218967E0
1.381821310E-1,1.491806984E0,-3.364599869E-2,-2.909910083E-1,1.520294675E0
1.431219050E-1,1.497187018E0,8.434800059E-2,1.595360041E-1,1.508023637E0
1.480619050E-1,1.597262979E0,2.572749853E-1,5.697330236E-1,1.715236182E0
1.530019050E-1,1.807885051E0,4.573430121E-1,8.179979920E-1,2.036352549E0
1.579419140E-1,2.034584045E0,6.715809703E-1,1.013362050E0,2.370117272E0
1.628818370E-1,2.320291042E0,8.166520000E-1,1.293143034E0,2.779008801E0
1.678218270E-1,2.554528952E0,9.890760183E-1,1.397583008E0,3.075244348E0
1.727615960E-1,2.765273094E0,1.147897959E0,1.394986033E0,3.303088107E0
1.777015190E-1,2.856642008E0,1.171215057E0,1.434741974E0,3.404501844E0
1.826416300E-1,2.857078075E0,1.166494966E0,1.408607006E0,3.392311797E0
1.875816300E-1,2.764899969E0,1.066627979E0,1.397433996E0,3.276459806E0
1.925215530E-1,2.688929081E0,1.007344007E0,1.578315973E0,3.276608439E0
1.974613370E-1,2.533711910E0,1.016309023E0,1.651425958E0,3.190577968E0
2.024013370E-1,2.436434031E0,9.961259961E-1,1.740092039E0,3.155376062E0
2.073413660E-1,2.341604948E0,1.042994022E0,1.870982051E0,3.173566463E0
2.122812890E-1,2.209160089E0,1.047397017E0,1.989928961E0,3.152339779E0
2.172212890E-1,2.188867092E0,9.955009818E-1,2.001560926E0,3.128643076E0
2.221610770E-1,2.131037951E0,9.261209965E-1,1.988024950E0,3.057983984E0
2.271010770E-1,2.062119961E0,7.992399931E-1,2.044176102E0,3.011607417E0
2.320410770E-1,2.105739117E0,6.686810255E-1,1.938853025E0,2.939459575E0
2.369810150E-1,2.166929007E0,5.349969864E-1,1.712854981E0,2.813480990E0
2.419210150E-1,2.231291056E0,4.379569888E-1,1.366130948E0,2.652692946E0
2.468610100E-1,2.215194941E0,3.105910122E-1,1.020452976E0,2.458633702E0
2.518007790E-1,2.213294983E0,2.619470060E-1,6.483420134E-1,2.321128665E0
2.567407790E-1,2.211546898E0,3.202530146E-1,1.813639998E-1,2.241962215E0
2.616807170E-1,2.222434044E0,4.040400088E-1,-2.582820058E-1,2.273581097E0
2.666207170E-1,2.203696966E0,5.006369948E-1,-5.077400208E-1,2.316186013E0
2.715607170E-1,2.182337999E0,5.694509745E-1,-5.535060167E-1,2.322335563E0
2.765004920E-1,2.186352015E0,6.517549753E-1,-5.452619791E-1,2.345683334E0
2.814404920E-1,2.244276047E0,7.206270099E-1,-5.916600227E-1,2.430255099E0
2.863805010E-1,2.302251101E0,7.904850245E-1,-6.518089771E-1,2.519936834E0
2.913204240E-1,2.319422007E0,8.209409714E-1,-7.938879728E-1,2.585327955E0
2.962604240E-1,2.349402905E0,8.256369829E-1,-8.274490237E-1,2.624126964E0
3.012004140E-1,2.350824118E0,8.583459854E-1,-7.116330266E-1,2.601836549E0
3.061404140E-1,2.350598097E0,8.782830238E-1,-8.279029727E-1,2.642369356E0
3.110801830E-1,2.280069113E0,8.848170042E-1,-7.812960148E-1,2.567496787E0
3.160201880E-1,2.234497070E0,8.638619781E-1,-5.989810228E-1,2.469415506E0
3.209601880E-1,2.228125095E0,8.276500106E-1,-4.576120079E-1,2.420527779E0
3.258999040E-1,2.192317963E0,8.578079939E-1,-3.709340096E-1,2.383208896E0
3.308399040E-1,2.127053976E0,8.721349835E-1,-3.933449984E-1,2.332316088E0
3.357799040E-1,2.126678944E0,9.663609862E-1,-5.796430111E-1,2.406782688E0
3.407198900E-1,2.137413979E0,1.031734943E0,-4.393259883E-1,2.413715566E0
3.456598900E-1,2.119780064E0,1.123690009E0,-2.445870042E-1,2.411632136E0
3.505995830E-1,2.117443085E0,1.256036043E0,-1.854369938E-1,2.468922566E0
3.555396120E-1,2.145562887E0,1.387899995E0,-2.615140080E-1,2.568675938E0
3.604796120E-1,2.136436939E0,1.423761010E0,-5.816869736E-1,2.632454737E0
3.654195300E-1,2.087616920E0,1.418859005E0,-6.972230077E-1,2.618668594E0
3.703595300E-1,2.039052963E0,1.414031982E0,-7.445449829E-1,2.590669926E0
3.752992990E-1,2.044483900E0,1.368494034E0,-6.829820275E-1,2.553263556E0
3.802392940E-1,2.117703915E0,1.390576959E0,-6.349750161E-1,2.611813052E0
3.851792940E-1,2.148797035E0,1.466927052E0,-6.825050116E-1,2.689798647E0
3.901192170E-1,2.273148060E0,1.570719957E0,-7.032309771E-1,2.851122076E0
3.950592030E-1,2.367611885E0,1.702541947E0,-6.973440051E-1,2.998420214E0
3.999992030E-1,2.351149082E0,1.890022039E0,-6.102460027E-1,3.077740324E0
4.049389870E-1,2.196407080E0,1.970659971E0,-2.105289996E-1,2.958382538E0
4.098789870E-1,1.864637971E0,1.917225003E0,4.069460034E-1,2.705223008E0
4.148189870E-1,1.521777034E0,1.893177986E0,6.297929883E-1,2.509296203E0
4.197589870E-1,1.184167981E0,1.884166002E0,6.221150160E-1,2.310706045E0
4.246989100E-1,8.916659951E-1,1.849604964E0,6.696550250E-1,2.159755686E0
4.296389100E-1,7.121559978E-1,1.802724957E0,5.953440070E-1,2.027663168E0
4.345789100E-1,6.309069991E-1,1.743101001E0,5.624409914E-1,1.937210523E0
4.395186790E-1,7.156010270E-1,1.710546970E0,5.709969997E-1,1.940127146E0
4.444586640E-1,7.608330250E-1,1.718539953E0,5.254549980E-1,1.951499274E0
4.493986640E-1,8.617039919E-1,1.712234020E0,4.666720033E-1,1.972830927E0
4.543386110E-1,9.357169867E-1,1.691735983E0,5.170509815E-1,2.001219286E0
4.592786110E-1,9.963619709E-1,1.628800988E0,6.494489908E-1,2.016807831E0
4.642183800E-1,1.016168952E0,1.564851046E0,8.228790164E-1,2.039237115E0
4.691583700E-1,1.063277960E0,1.499469042E0,9.829130173E-1,2.084486850E0
4.740983700E-1,1.028982043E0,1.364771962E0,1.442832947E0,2.236777474E0
4.790382930E-1,9.285709858E-1,1.160506964E0,1.916960001E0,2.425645509E0
4.839780630E-1,9.263619781E-1,9.957200289E-1,1.601842046E0,2.101309789E0
4.889180630E-1,9.514480233E-1,8.296239972E-1,1.273280025E0,1.792978343E0
4.938583070E-1,9.598709941E-1,7.165470123E-1,1.366539955E0,1.817202079E0
4.987980770E-1,9.514179826E-1,6.699860096E-1,1.650050044E0,2.019094495E0
5.037379860E-1,9.555590153E-1,7.307059765E-1,1.947185993E0,2.288789538E0
5.086779860E-1,1.110532045E0,1.008257031E0,2.067584991E0,2.554363201E0
5.136177550E-1,1.402886033E0,1.352807999E0,2.133857965E0,2.889901126E0
5.185577550E-1,1.641348004E0,1.559744954E0,2.227644920E0,3.176354748E0
5.234977550E-1,1.743381023E0,1.751765966E0,2.253434896E0,3.344552321E0
5.284377310E-1,1.789896011E0,1.942309976E0,2.333682060E0,3.524537946E0
5.333776540E-1,1.807227015E0,2.063220978E0,2.372880936E0,3.626777388E0
5.383174230E-1,1.821586967E0,2.127634048E0,2.479868889E0,3.740956486E0
5.432574230E-1,1.805274010E0,2.162472963E0,2.600126982E0,3.833531517E0
5.481974230E-1,1.799039960E0,2.112760067E0,2.760953903E0,3.914481617E0
5.531374230E-1,1.776460052E0,2.046159983E0,2.908096075E0,3.974871541E0
5.580773130E-1,1.861034036E0,1.989788055E0,3.068998098E0,4.103834002E0
5.630173130E-1,1.932286978E0,1.903030038E0,3.094202995E0,4.114528948E0
5.679573080E-1,2.045591116E0,1.826578021E0,3.120100975E0,4.154017378E0
5.728970770E-1,2.256966114E0,1.896553040E0,3.078876019E0,4.262661963E0
5.778370680E-1,2.430557013E0,1.908447981E0,2.943375111E0,4.267697052E0
5.827770680E-1,2.540164948E0,1.836339951E0,2.713623047E0,4.145881380E0
5.877169910E-1,2.503554106E0,1.680564046E0,2.471216917E0,3.898588427E0
5.926569860E-1,2.360965967E0,1.455952048E0,2.202284098E0,3.541752661E0
5.975969860E-1,2.151686907E0,1.217363000E0,1.960994959E0,3.155507954E0
6.025370100E-1,1.955595016E0,9.797750115E-1,1.801344037E0,2.833575706E0
6.074767790E-1,1.689476967E0,7.837740183E-1,1.709494948E0,2.528044128E0
6.124167020E-1,1.502845049E0,7.124069929E-1,1.726062059E0,2.396947475E0
6.173566970E-1,1.327872038E0,6.298450232E-1,1.742053032E0,2.279187941E0
6.222966970E-1,1.220039010E0,5.918480158E-1,1.825515985E0,2.274046586E0
6.272366870E-1,1.043972015E0,5.297350287E-1,2.031131983E0,2.344353621E0
6.321764570E-1,9.778860211E-1,3.757190108E-1,2.195563078E0,2.432678169E0
6.371163800E-1,9.406160116E-1,2.382750064E-1,2.359813929E0,2.551520182E0
6.420563950E-1,7.969769835E-1,8.127000183E-3,2.578552008E0,2.698919935E0
6.469963950E-1,6.836869717E-1,-3.296889961E-1,2.743099928E0,2.846176369E0
6.519363950E-1,5.873950124E-1,-5.583840013E-1,2.880913019E0,2.992738782E0
6.568761550E-1,6.441709995E-1,-7.609720230E-1,2.924083948E0,3.089385316E0
6.618160780E-1,8.128479719E-1,-8.425170183E-1,2.927120924E0,3.152553513E0
6.667560780E-1,9.707229733E-1,-8.447690010E-1,2.849303961E0,3.126415010E0
6.716960780E-1,1.009454966E0,-8.358619809E-1,2.731617928E0,3.029752644E0
6.766360780E-1,1.093664050E0,-8.159629703E-1,2.329142094E0,2.699407253E0
6.815758610E-1,1.318439007E0,-4.847530127E-1,2.023129940E0,2.462990388E0
6.865157840E-1,1.493670940E0,-3.598760068E-1,1.486843944E0,2.138052509E0
6.914557840E-1,1.578294039E0,-3.313220143E-1,1.047008038E0,1.922761603E0
6.963957700E-1,1.708264947E0,-3.715049922E-1,4.175469875E-1,1.797367679E0
7.013357700E-1,1.895342946E0,-3.701109886E-1,-2.522369921E-1,1.947544743E0
7.062755400E-1,2.097433090E0,-3.136630058E-1,-8.126869798E-1,2.271138520E0
7.112155400E-1,2.148741007E0,-3.786619902E-1,-1.237089992E0,2.508159577E0
7.161555400E-1,2.238627911E0,-5.105320215E-1,-1.552973032E0,2.771970978E0
7.210954480E-1,2.337394953E0,-5.857409835E-1,-1.869990945E0,3.050143242E0
7.260354480E-1,2.390264034E0,-7.002559900E-1,-2.065560102E0,3.235777981E0
7.309752170E-1,2.396284103E0,-7.312489748E-1,-2.044625044E0,3.233789439E0
7.359152410E-1,2.383218050E0,-7.062929869E-1,-1.970512033E0,3.171986086E0
7.408552410E-1,2.365118980E0,-6.251980066E-1,-1.775105953E0,3.022525680E0
7.457951640E-1,2.357669115E0,-5.293750167E-1,-1.553249002E0,2.872529204E0
7.507352410E-1,2.485627890E0,-4.731650054E-1,-1.427127957E0,2.904982846E0
7.556751640E-1,2.668884993E0,-4.020119905E-1,-1.369202018E0,3.026429399E0
7.606151790E-1,2.813311100E0,-3.835990131E-1,-1.379317999E0,3.156641521E0
7.655549480E-1,2.905810118E0,-4.047389925E-1,-1.484516025E0,3.288059294E0
7.704949520E-1,2.959947109E0,-5.195699930E-1,-1.644014955E0,3.425496320E0
7.754349520E-1,3.002671957E0,-6.872259974E-1,-1.830625057E0,3.583225719E0
7.803748760E-1,3.019120932E0,-8.937879801E-1,-2.003801107E0,3.732179930E0
7.853148860E-1,2.926727057E0,-1.057450056E0,-2.204596043E0,3.813682682E0
7.902546550E-1,2.819859028E0,-1.232445002E0,-2.365165949E0,3.881305912E0
7.951945780E-1,2.656974077E0,-1.364182949E0,-2.444822073E0,3.859748869E0
8.001346650E-1,2.450813055E0,-1.493698955E0,-2.402858973E0,3.743174113E0
8.050745880E-1,2.310797930E0,-1.512038946E0,-2.239181042E0,3.555275036E0
8.100143570E-1,2.155486107E0,-1.459869027E0,-2.049112082E0,3.313034599E0
8.149543420E-1,1.971817970E0,-1.323876977E0,-1.777976990E0,2.966802746E0
8.198943420E-1,1.746355057E0,-9.958220124E-1,-1.520925999E0,2.520839812E0
8.248342560E-1,1.520663977E0,-6.393799782E-1,-1.332234025E0,2.120394582E0
8.297742560E-1,1.294953942E0,-4.185419977E-1,-1.238978028E0,1.840421058E0
8.347142560E-1,1.096325040E0,-2.516140044E-1,-1.200320959E0,1.644995017E0
8.396540210E-1,1.019168019E0,-1.531340033E-1,-1.148182988E0,1.542879661E0
8.445940210E-1,1.063591957E0,-6.832700223E-2,-1.068982959E0,1.509510184E0
8.495339440E-1,1.243213058E0,7.077199966E-2,-1.030797005E0,1.616517815E0
8.544739490E-1,1.544571996E0,1.960819960E-1,-1.047216058E0,1.876382762E0
8.594139490E-1,1.763371944E0,3.206689954E-1,-1.077272058E0,2.091129911E0
8.643539390E-1,1.926463962E0,4.312050045E-1,-1.080248952E0,2.250364181E0
8.692939390E-1,1.992800951E0,5.548130274E-1,-1.056167960E0,2.322620048E0
8.742337180E-1,1.962103963E0,6.509749889E-1,-9.506739974E-1,2.275390394E0
8.791736410E-1,1.957509041E0,7.462369800E-1,-8.179979920E-1,2.248962425E0
8.841136410E-1,1.966032982E0,8.406999707E-1,-6.716409922E-1,2.241241564E0
8.890536400E-1,1.988814950E0,8.524069786E-1,-6.066570282E-1,2.247223912E0
8.939936400E-1,2.039993048E0,7.950000167E-1,-5.684620142E-1,2.262022485E0
8.989334090E-1,2.051584959E0,7.640299797E-1,-5.025900006E-1,2.246183288E0
9.038733950E-1,2.050687075E0,7.864469886E-1,-3.954040110E-1,2.231627360E0
9.088133950E-1,2.037208080E0,8.488169909E-1,-3.559229970E-1,2.235483891E0
9.137533230E-1,1.983909965E0,8.832399845E-1,-3.705649972E-1,2.203027470E0
9.186933230E-1,1.890460968E0,9.036200047E-1,-4.666939974E-1,2.146666036E0
9.236330930E-1,1.769791961E0,9.505820274E-1,-5.626969934E-1,2.086240082E0
9.285731260E-1,1.648291945E0,9.698029757E-1,-5.362060070E-1,1.986177492E0
9.335131260E-1,1.539093971E0,9.886559844E-1,-4.826940000E-1,1.891889110E0
9.384530490E-1,1.511044979E0,9.803529978E-1,-4.701780081E-1,1.861562862E0
9.433928130E-1,1.496248960E0,9.994699955E-1,-5.394939780E-1,1.878498064E0
9.483328130E-1,1.494364023E0,9.779329896E-1,-5.953750014E-1,1.882537691E0
9.532728130E-1,1.559250951E0,9.294400215E-1,-5.426269770E-1,1.894615084E0
9.582128090E-1,1.622604012E0,9.221000075E-1,-4.221549928E-1,1.913459444E0
9.631528090E-1,1.657207012E0,8.871970177E-1,-2.474640012E-1,1.895967315E0
9.680927320E-1,1.663411975E0,8.516820073E-1,-4.566799849E-2,1.869328009E0
9.730325010E-1,1.696598053E0,8.833119869E-1,1.153829992E-1,1.916245876E0
9.779725010E-1,1.770550013E0,9.411180019E-1,2.221219987E-1,2.017396496E0
9.829125010E-1,1.817242980E0,9.837999940E-1,2.473980039E-1,2.081211246E0
9.878524240E-1,1.822769046E0,1.051743984E0,1.776089966E-1,2.111917934E0
9.927924240E-1,1.718938947E0,1.117856026E0,2.633300051E-2,2.050621034E0
9.977321840E-1,1.600756049E0,1.168496013E0,-9.753099829E-2,1.984266906E0
1.002672184E0,1.536430955E0,1.149497032E0,-2.076330036E-1,1.930045329E0
1.007612174E0,1.430217981E0,1.197008967E0,-2.768020034E-1,1.885463681E0
1.012552097E0,1.377568960E0,1.433601975E0,-3.458639979E-1,2.018051726E0
1.017492097E0,1.296772957E0,1.478042960E0,-4.693180025E-1,2.021506983E0
1.022432083E0,1.201156020E0,1.549013972E0,-4.975210130E-1,2.022312347E0
1.027372083E0,1.253519058E0,1.632681012E0,-5.803819895E-1,2.138644564E0
1.032311852E0,1.194458961E0,1.647441983E0,-5.273470283E-1,2.102116121E0
1.037251857E0,1.187499046E0,1.606771946E0,-4.337010086E-1,2.044496671E0
1.042191857E0,1.152408957E0,1.497596979E0,-3.128499985E-1,1.915389840E0
1.047131789E0,1.116951942E0,1.374292970E0,-1.782889962E-1,1.779901619E0
1.052071789E0,1.300145984E0,1.373414993E0,-2.069319934E-1,1.902490256E0
1.057011789E0,1.675155997E0,1.699586987E0,-2.625640035E-1,2.400767252E0
1.061951554E0,1.644196987E0,1.495584965E0,-4.561999813E-3,2.222651329E0
1.066891554E0,1.480316997E0,1.251381993E0,1.450099945E-1,1.943790936E0
1.071831477E0,1.361485004E0,1.089846969E0,2.679699957E-1,1.764430716E0
1.076771482E0,1.164752960E0,9.156380296E-1,3.369930089E-1,1.519410000E0
1.081711482E0,9.714140296E-1,6.474999785E-1,4.200040102E-1,1.240687232E0
1.086651472E0,7.939990163E-1,2.714770138E-1,5.304809809E-1,9.927458275E-1
1.091591241E0,6.449069977E-1,-7.618299872E-2,7.362899780E-1,9.817493655E-1
1.096531164E0,5.236330032E-1,-3.414520025E-1,9.829419851E-1,1.164884517E0
1.101471150E0,4.027340114E-1,-4.972740114E-1,1.379398942E0,1.520597767E0
1.106410919E0,4.735890031E-1,-2.991429865E-1,1.462823033E0,1.566404896E0
1.111351150E0,1.062602997E0,4.302259982E-1,1.355664968E0,1.775400531E0
1.116291184E0,1.446521044E0,8.736310005E-1,1.479900956E0,2.246277163E0
1.121230876E0,1.543195009E0,1.044778943E0,1.794571996E0,2.587180420E0
1.126170866E0,1.584203005E0,1.188320041E0,2.122720957E0,2.903058377E0
1.131110866E0,1.665480971E0,1.398921967E0,2.287527084E0,3.156515436E0
1.136050866E0,1.678385973E0,1.594758987E0,2.452514887E0,3.372694023E0
1.140990622E0,1.664198995E0,1.666674972E0,2.481602907E0,3.421361826E0
1.145930622E0,1.636106014E0,1.736593962E0,2.497430086E0,3.453948250E0
1.150870545E0,1.661471963E0,1.804319024E0,2.472665071E0,3.482833441E0
1.155810535E0,1.630939960E0,1.869485021E0,2.434562922E0,3.475922326E0
1.160750535E0,1.557824016E0,1.864689946E0,2.410178900E0,3.422403627E0
1.165690314E0,1.387235045E0,1.844166994E0,2.426744938E0,3.348800377E0
1.170630314E0,1.255949020E0,1.835798979E0,2.416146040E0,3.284102239E0
1.175570314E0,1.150091052E0,1.798776984E0,2.351099968E0,3.175843058E0
1.180510222E0,8.650529981E-1,1.543058991E0,2.435734034E0,3.010340184E0
1.185450222E0,6.323369741E-1,1.408650994E0,2.561202049E0,2.990635987E0
1.190390222E0,4.795710146E-1,1.381939054E0,2.523286104E0,2.916627619E0
1.195330251E0,3.938609958E-1,1.245458007E0,2.471854925E0,2.795775188E0
1.200270020E0,5.806260109E-1,8.101180196E-1,2.284166098E0,2.492154195E0
1.205210029E0,8.890960217E-1,3.489019871E-1,2.136982918E0,2.340709363E0
1.210150029E0,1.278445959E0,1.080759987E-1,1.961948991E0,2.344215932E0
1.215089952E0,1.653427958E0,1.963459998E-1,1.990671039E0,2.595216166E0
1.220029953E0,1.893782020E0,1.649899930E-1,2.100761890E0,2.833166525E0
1.224969722E0,1.878309011E0,-8.204100281E-2,2.088284969E0,2.809930530E0
1.229909722E0,1.812371016E0,-4.223810136E-1,1.926197052E0,2.678307208E0
1.234849756E0,1.722597003E0,-7.205389738E-1,1.669028997E0,2.504431002E0
1.239789679E0,1.730823994E0,-7.721930146E-1,1.357504964E0,2.331277220E0
1.244729693E0,1.862743020E0,-6.732879877E-1,1.223057985E0,2.327874376E0
1.249669462E0,1.546522975E0,-1.186458945E0,1.347421050E0,2.369591025E0
1.254609385E0,1.464020967E0,-1.385885954E0,1.049790978E0,2.272905271E0
1.259549385E0,1.696398973E0,-1.107887983E0,6.705319881E-1,2.134197369E0
1.264489385E0,1.848279953E0,-9.240850210E-1,3.320510089E-1,2.092923740E0
1.269429385E0,1.756324053E0,-9.700959921E-1,1.295659989E-1,2.010608803E0
1.274369159E0,1.542930007E0,-9.738429785E-1,8.642000146E-3,1.824576071E0
1.279309083E0,1.357494950E0,-9.486590028E-1,-2.487850040E-1,1.674706070E0
1.284249083E0,1.308199048E0,-8.809580207E-1,-5.611129999E-1,1.674013017E0
1.289189083E0,1.325209022E0,-7.975649834E-1,-8.470050097E-1,1.763435947E0
1.294129098E0,1.325235009E0,-6.984059811E-1,-9.841520190E-1,1.792365460E0
1.299068867E0,1.376067996E0,-5.430870056E-1,-9.861059785E-1,1.777895280E0
1.304008867E0,1.423876047E0,-4.271639884E-1,-9.344260097E-1,1.755859914E0
1.308948862E0,1.510143042E0,-3.916620016E-1,-7.744759917E-1,1.741764677E0
1.313888785E0,1.621754050E0,-3.553600013E-1,-5.469059944E-1,1.747991160E0
1.318828785E0,1.596945047E0,-3.734009862E-1,-1.967969984E-1,1.651784138E0
1.323768765E0,1.519003034E0,-5.141649842E-1,8.547700197E-2,1.605939652E0
1.328708534E0,1.498751998E0,-6.421210170E-1,2.595089972E-1,1.651036605E0
1.333648534E0,1.455667973E0,-6.895419955E-1,4.209029973E-1,1.664811324E0
1.338588563E0,1.377416968E0,-6.565380096E-1,4.609200060E-1,1.593978329E0
1.343528486E0,1.332947969E0,-6.935099959E-1,1.891500056E-1,1.514425346E0
1.348468477E0,1.212726951E0,-8.138759732E-1,-1.221209988E-1,1.465610554E0
1.353408247E0,9.888820052E-1,-7.583619952E-1,-4.049800038E-1,1.310347030E0
1.358348247E0,8.240990043E-1,-5.950949788E-1,-6.595090032E-1,1.211705132E0
1.363288237E0,7.443469763E-1,-5.280529857E-1,-1.103883982E0,1.432289154E0
1.368228237E0,7.629060149E-1,-4.475240111E-1,-1.656591058E0,1.877923657E0
1.373168160E0,7.968720198E-1,-3.802050054E-1,-2.127247095E0,2.303202350E0
1.378108165E0,8.729720116E-1,-3.391920030E-1,-2.570533991E0,2.735831929E0
1.383047934E0,1.030055046E0,-3.103330135E-1,-2.932451010E0,3.123553890E0
1.387987953E0,1.090926051E0,-3.749499917E-1,-3.226744890E0,3.426746231E0
1.392927953E0,9.860609770E-1,-4.919359982E-1,-3.440133095E0,3.612316845E0
1.397867876E0,9.601420164E-1,-5.518890023E-1,-3.572834015E0,3.740534328E0
1.402807630E0,9.708989859E-1,-6.636440158E-1,-3.597933054E0,3.785259632E0
1.407747630E0,1.018854976E0,-7.314479947E-1,-3.515446901E0,3.732485572E0
1.412687553E0,9.813460112E-1,-7.282450199E-1,-3.434322119E0,3.645263944E0
1.417627649E0,1.022533059E0,-8.036710024E-1,-3.340842962E0,3.585065221E0
1.422567649E0,1.141754985E0,-8.902440071E-1,-3.112411976E0,3.432673469E0
1.427507328E0,1.312060952E0,-9.334279895E-1,-2.789834976E0,3.221175399E0
1.432447328E0,1.478796005E0,-9.200760126E-1,-2.413887978E0,2.976614295E0
1.437387328E0,1.628671050E0,-8.639469743E-1,-2.011698008E0,2.728718131E0
1.442327309E0,1.884891987E0,-7.119029760E-1,-1.528345942E0,2.528925655E0
1.447267232E0,2.071803093E0,-5.452610254E-1,-1.072589993E0,2.395856201E0
1.452207232E0,2.217730045E0,-4.191829860E-1,-6.168169975E-1,2.339765830E0
1.457147015E0,2.350373983E0,-3.063910007E-1,-2.971400023E-1,2.388812569E0
1.462087015E0,2.374627113E0,-1.672360003E-1,9.317000397E-3,2.380526961E0
1.467027001E0,2.317487001E0,6.698200107E-2,1.934169978E-1,2.326508699E0
1.471966924E0,2.315188885E0,2.458889931E-1,2.416480035E-1,2.340716712E0
1.476906924E0,2.353669882E0,4.241830111E-1,3.854190111E-1,2.422445243E0
1.481846924E0,2.378365040E0,6.551060081E-1,5.432230234E-1,2.526039469E0
1.486786693E0,2.348507881E0,8.304389715E-1,6.604390144E-1,2.577071564E0
1.491726693E0,2.318751097E0,1.017707944E0,7.644410133E-1,2.645128763E0
1.496666707E0,2.371638060E0,1.108206987E0,7.191249728E-1,2.714761599E0
1.501606631E0,2.384433031E0,1.073783040E0,5.246170163E-1,2.667162146E0
1.506546626E0,2.342122078E0,1.105505943E0,4.802060127E-1,2.634060940E0
1.511486626E0,2.189809084E0,1.135136008E0,5.585790277E-1,2.528993498E0
1.516426626E0,1.995532990E0,1.176447988E0,6.371070147E-1,2.402516832E0
1.521366400E0,1.895717025E0,1.147079945E0,6.478340030E-1,2.308511281E0
1.526306400E0,1.890480042E0,1.156353951E0,6.451950073E-1,2.308104383E0
1.531246400E0,1.925480008E0,1.258553028E0,5.611429811E-1,2.367764860E0
1.536186323E0,1.973569036E0,1.304036021E0,4.773829877E-1,2.413167876E0
1.541126323E0,1.966657043E0,1.333896041E0,4.211139977E-1,2.413370168E0
1.546066078E0,1.932042956E0,1.389551997E0,3.922530115E-1,2.411950904E0
1.551006078E0,1.897519946E0,1.457543969E0,3.772560060E-1,2.422258958E0
1.555946001E0,1.809218049E0,1.510835052E0,3.762060106E-1,2.386927620E0
1.560885780E0,1.735932946E0,1.495152950E0,2.802329957E-1,2.308132594E0
1.565825780E0,1.691530943E0,1.478930950E0,1.438059956E-1,2.251487031E0
1.570765780E0,1.594524026E0,1.421383977E0,-3.304399922E-2,2.136335925E0
1.575705775E0,1.471393943E0,1.377156019E0,-2.368679941E-1,2.029203115E0
1.580645698E0,1.335281014E0,1.292140007E0,-3.861039877E-1,1.897808598E0
1.585585698E0,1.185454011E0,1.248183012E0,-5.081490278E-1,1.794847480E0
1.590525467E0,1.061983943E0,1.258656025E0,-5.622500181E-1,1.740158029E0
1.595465467E0,9.784259796E-1,1.268581033E0,-5.619530082E-1,1.697765124E0
1.600405448E0,9.209989905E-1,1.305060029E0,-5.617420077E-1,1.693214370E0
1.605345448E0,9.716460109E-1,1.299551964E0,-5.478780270E-1,1.712630027E0
1.610285371E0,1.035009027E0,1.374673009E0,-5.476070046E-1,1.805780440E0
1.615225140E0,1.111078978E0,1.421161056E0,-5.881140232E-1,1.897385924E0
1.620165140E0,1.145575047E0,1.398337007E0,-5.876659751E-1,1.900799797E0
1.625105092E0,1.261327028E0,1.401924968E0,-6.007649899E-1,1.979206422E0
1.630045092E0,1.349630952E0,1.364212036E0,-6.274269819E-1,2.018970729E0
1.634985015E0,1.383484006E0,1.394655943E0,-5.451139808E-1,2.038686451E0
1.639925044E0,1.418167949E0,1.398628950E0,-3.401879966E-1,2.020666015E0
1.644865044E0,1.440889001E0,1.362692952E0,-2.304629982E-1,1.996548619E0
1.649804814E0,1.384016991E0,1.328066945E0,-1.341989934E-1,1.922829740E0
1.654744809E0,1.247951031E0,1.295148015E0,-2.416300029E-2,1.798714543E0
1.659684809E0,1.115036011E0,1.210055947E0,1.268859953E-1,1.650345648E0
1.664624713E0,9.174950123E-1,1.140943050E0,2.645210028E-1,1.487790141E0
1.669564713E0,7.098320127E-1,1.047001958E0,3.206399977E-1,1.304946204E0
1.674504713E0,5.600119829E-1,9.553909898E-1,2.952440083E-1,1.146104004E0
1.679444496E0,5.209770203E-1,8.933399916E-1,3.106459975E-1,1.079802913E0
1.684384496E0,4.961450100E-1,8.879430294E-1,3.257879913E-1,1.068054544E0
1.689324409E0,4.709289968E-1,8.433030248E-1,3.133560121E-1,1.015443796E0
1.694264409E0,4.304519892E-1,8.000739813E-1,3.684870005E-1,9.804029580E-1
1.699204409E0,4.407350123E-1,8.939020038E-1,5.725979805E-1,1.149424461E0
1.704144158E0,5.150390267E-1,8.930339813E-1,8.030639887E-1,1.306784856E0
1.709084158E0,5.435609818E-1,9.192209840E-1,1.182446003E0,1.593299817E0
1.714024069E0,6.622650027E-1,1.080839992E0,1.642696023E0,2.074912105E0
1.718964069E0,8.311960101E-1,1.322499990E0,2.156913042E0,2.663112259E0
1.723903838E0,1.025156975E0,1.480851054E0,2.466695070E0,3.054251338E0
1.728843838E0,1.204172969E0,1.610141993E0,2.762937069E0,3.417076385E0
1.733783761E0,1.368145943E0,1.777796984E0,2.936777115E0,3.695543973E0
1.738723761E0,1.434883952E0,1.942582965E0,3.138017893E0,3.959757168E0
1.743663751E0,1.623131990E0,2.117789984E0,3.285151958E0,4.232235256E0
1.748603520E0,1.823657990E0,2.276120901E0,3.405390978E0,4.483652811E0
1.753543520E0,1.968319058E0,2.430665016E0,3.403486013E0,4.622351066E0
1.758483530E0,2.070777893E0,2.553854942E0,3.334005117E0,4.682508545E0
1.763423530E0,2.185585022E0,2.605232954E0,3.305874109E0,4.742660040E0
1.768363471E0,2.366328955E0,2.666268110E0,3.278151035E0,4.843012757E0
1.773303471E0,2.476789951E0,2.546586037E0,3.264437914E0,4.824535604E0
1.778243241E0,2.421411991E0,2.246380091E0,3.305568933E0,4.672926868E0
1.783183275E0,2.174694061E0,1.984684944E0,3.456159115E0,4.540187707E0
1.788123275E0,1.859887004E0,1.774662018E0,3.607471943E0,4.429724457E0
1.793063198E0,1.915050983E0,1.834525943E0,3.487430096E0,4.381218367E0
1.798003183E0,2.137689114E0,1.975059986E0,3.327581882E0,4.420789282E0
1.802942952E0,2.257752895E0,1.790209055E0,3.086906910E0,4.222711317E0
1.807882962E0,2.125384092E0,1.334251046E0,2.738151073E0,3.714155987E0
1.812822962E0,1.753509045E0,8.532739878E-1,2.458045006E0,3.137651306E0
1.817762885E0,1.358955979E0,4.703170061E-1,2.259911060E0,2.678648435E0
1.822702865E0,9.683049917E-1,-9.921299666E-2,2.075210094E0,2.292150674E0
1.827642865E0,7.026100159E-1,-7.198119760E-1,1.985551000E0,2.225803874E0
1.832582634E0,5.200430155E-1,-1.159873009E0,2.031608105E0,2.396493611E0
1.837522663E0,2.978369892E-1,-1.528965950E0,2.077265978E0,2.596435574E0
1.842462586E0,9.040500224E-2,-1.758690000E0,2.108817101E0,2.747412081E0
1.847402557E0,1.435060054E-1,-1.836480975E0,2.058482885E0,2.762355541E0
1.852342557E0,3.618099988E-1,-1.803650975E0,1.967229962E0,2.693335672E0
1.857282557E0,5.955669880E-1,-1.715335965E0,1.780738950E0,2.543247671E0
1.862222572E0,8.993009925E-1,-1.585090995E0,1.621592045E0,2.439429543E0
1.867162265E0,1.069180965E0,-1.440742970E0,1.462774992E0,2.314864773E0
1.872102265E0,1.228113055E0,-1.282209039E0,1.154510021E0,2.117832638E0
1.877042270E0,1.512953043E0,-1.163717985E0,8.467019796E-1,2.088102177E0
1.881982270E0,1.827484965E0,-1.085091949E0,5.391759872E-1,2.192677947E0
1.886921947E0,2.158291101E0,-1.114853978E0,1.912309974E-1,2.436737402E0
1.891861947E0,2.449438095E0,-1.226148009E0,-7.470499724E-2,2.740212904E0
1.896801947E0,2.604897976E0,-1.269577026E0,-2.450319976E-1,2.908154049E0
1.901741933E0,2.568914890E0,-1.341313004E0,-4.015159905E-1,2.925689556E0
1.906681702E0,2.546360016E0,-1.455502033E0,-5.711730123E-1,2.988088705E0
1.911621702E0,2.618546009E0,-1.503537059E0,-7.403780222E-1,3.108949421E0
1.916561716E0,2.690534115E0,-1.485628009E0,-9.907230139E-1,3.229178919E0
1.921501639E0,2.665390968E0,-1.510444045E0,-1.172777057E0,3.280420133E0
1.926441663E0,2.557566881E0,-1.537034035E0,-1.327257037E0,3.265766865E0
1.931381433E0,2.462143898E0,-1.524078012E0,-1.590531945E0,3.303749117E0
1.936321433E0,2.447592974E0,-1.416656971E0,-1.962631941E0,3.442317893E0
1.941261457E0,2.472650051E0,-1.254024982E0,-2.348692894E0,3.633584352E0
1.946201380E0,2.524677038E0,-1.089782953E0,-2.775973082E0,3.907383726E0
1.951141380E0,2.616801023E0,-9.361690283E-1,-3.217685938E0,4.251771730E0
1.956081395E0,2.571029902E0,-7.785580158E-1,-3.456384897E0,4.377549988E0
1.961021164E0,2.399203062E0,-6.838120222E-1,-3.629008055E0,4.403802184E0
1.965961154E0,2.155457020E0,-6.111599803E-1,-3.640295029E0,4.274489371E0
1.970901154E0,1.975435019E0,-4.787200093E-1,-3.463186979E0,4.015617065E0
1.975841077E0,1.954660058E0,-4.363839924E-1,-3.220206976E0,3.792210424E0
1.980781043E0,1.915910006E0,-3.894549906E-1,-2.843113899E0,3.450461271E0
1.985721043E0,1.846006036E0,-3.385420144E-1,-2.399735928E0,3.046486747E0
1.990660812E0,1.718315959E0,-2.708339989E-1,-1.889703989E0,2.568451276E0
1.995600703E0,1.642564058E0,-1.324139982E-1,-1.380777955E0,2.149906490E0
2.000540703E0,1.632730961E0,7.491900027E-2,-8.724309802E-1,1.852716671E0
2.005480722E0,1.621212959E0,6.482300162E-2,-4.325630069E-1,1.679179632E0
2.010420722E0,1.499658942E0,-6.889700145E-2,1.163820028E-1,1.505745168E0
2.015360491E0,1.296018958E0,-6.846799701E-2,6.385719776E-1,1.446418742E0
2.020300409E0,1.175238967E0,-7.178899646E-2,9.167680144E-1,1.492247929E0
2.025240409E0,1.137068987E0,2.825000091E-3,1.114326000E0,1.592060393E0
2.030180409E0,1.113494039E0,5.920600146E-2,1.272274017E0,1.691761065E0
2.035120409E0,1.159404039E0,-1.162900031E-2,1.349815965E0,1.779425778E0
2.040060178E0,1.221063972E0,-7.394800335E-2,1.428912997E0,1.881025753E0
2.045000168E0,1.298859000E0,-1.679880023E-1,1.346060991E0,1.878066789E0
2.049940091E0,1.324988008E0,-2.390149981E-1,1.155745983E0,1.774392901E0
2.054880125E0,1.462960005E0,-1.502880007E-1,8.578739762E-1,1.702582221E0
2.059820125E0,1.630931973E0,7.179799676E-2,4.658699930E-1,1.697683394E0
2.064759895E0,1.788213968E0,1.421180069E-1,1.021749973E-1,1.796759988E0
2.069699876E0,1.894332051E0,1.573259979E-1,-2.470079958E-1,1.916835502E0
2.074639799E0,2.018079042E0,1.865050048E-1,-7.043089867E-1,2.145571786E0
2.079579799E0,2.131979942E0,2.443539947E-1,-1.201890945E0,2.459591266E0
2.084519784E0,2.181368113E0,3.314870000E-1,-1.630949020E0,2.743764782E0
2.089459553E0,2.083575964E0,3.669820130E-1,-2.046335936E0,2.943374824E0
2.094399572E0,1.932804942E0,3.649210036E-1,-2.598227024E0,3.258785963E0
2.099339572E0,1.807994008E0,4.211820066E-1,-2.946878910E0,3.482862605E0
2.104279505E0,1.777073979E0,4.541319907E-1,-3.051498890E0,3.560319265E0
2.109219505E0,1.785200953E0,4.909630120E-1,-3.130095959E0,3.636686381E0
2.114159505E0,1.791187048E0,6.136050224E-1,-3.169174910E0,3.691684138E0
2.119099274E0,1.753149986E0,5.081850290E-1,-2.991790056E0,3.504653284E0
2.124039274E0,1.657708049E0,3.924390078E-1,-2.584218979E0,3.095188537E0
2.128979274E0,1.614439964E0,3.473449945E-1,-2.095966101E0,2.668358829E0
2.133919178E0,1.488528013E0,2.769030035E-1,-1.635504961E0,2.228736727E0
2.138859178E0,1.375895023E0,1.398259997E-1,-1.406895995E0,1.972813921E0
2.143799178E0,1.288967013E0,1.525309980E-1,-1.083232045E0,1.690589640E0
2.148738846E0,1.255128026E0,1.517059952E-1,-8.007169962E-1,1.496498840E0
2.153678923E0,1.328624964E0,2.457039952E-1,-4.775660038E-1,1.433068050E0
2.158618846E0,1.304991961E0,3.111799955E-1,-2.362650037E-1,1.362225443E0
2.163558827E0,1.293341041E0,3.199459910E-1,-4.936699942E-2,1.333241758E0
2.168498827E0,1.389292002E0,3.952600062E-1,5.581299961E-2,1.445502622E0
2.173438519E0,1.510797977E0,5.094059706E-1,1.882340014E-1,1.605439818E0
2.178378534E0,1.603289008E0,6.487339735E-1,3.614870012E-1,1.766936406E0
2.183318534E0,1.653522015E0,8.261269927E-1,3.987289965E-1,1.890927199E0
2.188258331E0,1.756607056E0,1.041602015E0,4.769510031E-1,2.097161264E0
2.193198562E0,1.885390997E0,1.240298033E0,5.008940101E-1,2.311694883E0
2.198138331E0,1.998975992E0,1.517781973E0,4.024020135E-1,2.541946993E0
2.203078260E0,2.151907921E0,1.792394042E0,2.904439867E-1,2.815624586E0
2.208018260E0,2.248605967E0,1.887465000E0,2.057500035E-1,2.942972304E0
2.212958260E0,2.085355043E0,1.680606961E0,2.846449912E-1,2.693356305E0
2.217898029E0,1.975656033E0,1.511924028E0,2.820949852E-1,2.503738926E0
2.222838029E0,2.083676100E0,1.571908951E0,1.574569941E-1,2.614841590E0
2.227777952E0,2.136307955E0,1.670119047E0,-7.747000083E-3,2.711672791E0
2.232717952E0,2.106472015E0,1.711652040E0,-2.286699973E-2,2.714313902E0
2.237657952E0,2.144089937E0,1.805825949E0,-6.499499828E-2,2.803988831E0
2.242597726E0,2.195278883E0,1.885035038E0,-1.068279967E-1,2.895516999E0
2.247537726E0,2.178082943E0,1.812988043E0,-1.756410003E-1,2.839334554E0
2.252477726E0,2.147387981E0,1.835742950E0,-1.897770017E-1,2.831473580E0
2.257417663E0,2.049112082E0,1.790526986E0,-1.628929973E-1,2.726056004E0
2.262357663E0,1.870877981E0,1.583024979E0,-8.128800243E-2,2.452093033E0
2.267297419E0,1.708212972E0,1.349210024E0,9.596800059E-2,2.178891714E0
2.272237419E0,1.602349043E0,1.130233049E0,2.599290013E-1,1.978007150E0
2.277177419E0,1.513126969E0,9.532179832E-1,4.652409852E-1,1.847870916E0
2.282117351E0,1.441369057E0,7.639650106E-1,7.120209932E-1,1.779932917E0
2.287057351E0,1.332762003E0,5.756279826E-1,8.778049946E-1,1.696509281E0
2.291997351E0,1.282881975E0,4.292320013E-1,1.003473997E0,1.684335577E0
2.296937351E0,1.236775041E0,3.927760124E-1,1.129802942E0,1.720563915E0
2.301877043E0,1.330454946E0,4.261859953E-1,1.283839941E0,1.897363924E0
2.306817116E0,1.523226976E0,4.885939956E-1,1.261330009E0,2.037129820E0
2.311757039E0,1.636875987E0,5.798559785E-1,1.320837975E0,2.181790299E0
2.316697039E0,1.711506009E0,7.544580102E-1,1.380481005E0,2.324690842E0
2.321637034E0,1.745437026E0,8.488420248E-1,1.453518987E0,2.424830023E0
2.326576726E0,1.792253017E0,1.202739000E0,1.703344941E0,2.749570143E0
2.331516726E0,1.784225941E0,1.393882036E0,1.898504019E0,2.954773570E0
2.336456731E0,1.803297043E0,1.489624977E0,1.998340011E0,3.076398153E0
2.341396501E0,1.875118017E0,1.789047956E0,2.166026115E0,3.377636644E0
2.346336731E0,1.917880058E0,1.978425026E0,2.347145081E0,3.619602123E0
2.351276424E0,1.876850009E0,2.043453932E0,2.514528036E0,3.744478758E0
2.356216424E0,1.819651961E0,2.201638937E0,2.804338932E0,4.002832012E0
2.361156433E0,1.759178042E0,2.425064087E0,3.107568979E0,4.316552811E0
2.366096202E0,1.614086986E0,2.563256979E0,3.492552042E0,4.623146429E0
2.371036202E0,1.643831968E0,2.724436998E0,3.755314112E0,4.922105705E0
2.375976207E0,1.698294997E0,2.744553089E0,3.895931959E0,5.059156391E0
2.380916130E0,1.681756020E0,2.705440998E0,4.159486771E0,5.239183572E0
2.385855860E0,1.704043031E0,2.633553028E0,4.396585941E0,5.400864018E0
2.390795860E0,1.711791992E0,2.406745911E0,4.471264839E0,5.358625473E0
2.395735860E0,1.691966057E0,2.079915047E0,4.383637905E0,5.138587065E0
2.400675846E0,1.794646978E0,1.913473964E0,4.242413998E0,4.988007309E0
2.405615846E0,1.978991985E0,2.016047955E0,4.088584900E0,4.969646377E0
2.410555769E0,1.987481952E0,2.021120071E0,3.935841084E0,4.850345955E0
2.415495784E0,1.984377027E0,2.024559975E0,3.702562094E0,4.663213627E0
2.420435553E0,2.052352905E0,2.055979013E0,3.402025938E0,4.473587222E0
2.425375534E0,2.083107948E0,1.938007951E0,3.007227898E0,4.139883231E0
2.430315534E0,2.144692898E0,1.822046995E0,2.367911100E0,3.677847993E0
2.435255457E0,2.194503069E0,1.586184025E0,1.823940992E0,3.264748723E0
2.440195486E0,2.230758905E0,1.232350945E0,1.510504007E0,2.962532110E0
2.445135486E0,2.307997942E0,8.820430040E-1,1.223549008E0,2.757159142E0
2.450075255E0,2.303579092E0,4.682640135E-1,1.044422984E0,2.572268880E0
2.455015250E0,2.095247030E0,-1.587689966E-1,1.000383973E0,2.327237806E0
2.459955173E0,1.641860008E0,-9.993219972E-1,1.009668946E0,2.171124161E0
2.464895168E0,1.284042001E0,-1.687469959E0,1.140913010E0,2.407903906E0
2.469835168E0,1.200355053E0,-2.141503096E0,1.013121009E0,2.655805328E0
2.474774937E0,1.065300941E0,-2.537672997E0,7.489860058E-1,2.852302643E0
2.479714842E0,8.788440228E-1,-2.861558914E0,5.117009878E-1,3.036893830E0
2.484654842E0,6.545119882E-1,-3.114413023E0,2.743789852E-1,3.194250812E0
2.489594611E0,9.766259789E-1,-2.697736979E0,-2.491140068E-1,2.879868208E0
2.494534625E0,1.529912949E0,-2.061249018E0,-7.595949769E-1,2.677006850E0
2.499474856E0,1.767707944E0,-1.831341982E0,-9.171140194E-1,2.705494955E0
2.504414548E0,1.839828014E0,-1.763633966E0,-7.623140216E-1,2.660168145E0
2.509354548E0,2.046482086E0,-1.722465038E0,-7.034969926E-1,2.765842142E0
2.514294553E0,2.156827927E0,-1.708402038E0,-8.765079975E-1,2.887699863E0
2.519234322E0,2.197061062E0,-1.776412964E0,-1.186154008E0,3.064258745E0
2.524174322E0,2.275228977E0,-1.708663940E0,-1.441992998E0,3.189912721E0
2.529114327E0,2.307908058E0,-1.654881001E0,-1.549203992E0,3.234981258E0
2.534054250E0,2.171740055E0,-1.751294971E0,-1.358181953E0,3.102925581E0
2.538994020E0,2.125750065E0,-1.712291002E0,-1.045799971E0,2.923089358E0
2.543934020E0,2.103018999E0,-1.483482957E0,-8.159930110E-1,2.699862068E0
2.548874020E0,1.941810966E0,-1.145990968E0,-6.139659882E-1,2.336852447E0
2.553813938E0,1.670984983E0,-1.012444019E0,-4.258390069E-1,1.999643110E0
2.558753938E0,1.455474973E0,-8.646759987E-1,-3.874689937E-1,1.736722258E0
2.563693938E0,1.446202040E0,-6.476910114E-1,-4.033730030E-1,1.635149463E0
2.568633707E0,1.520586014E0,-5.248849988E-1,-4.463289976E-1,1.669399791E0
2.573573707E0,1.651931047E0,-4.145669937E-1,-4.617019892E-1,1.764627639E0
2.578513707E0,1.758911967E0,-3.572599888E-1,-5.175920129E-1,1.867968817E0
2.583453721E0,1.828431964E0,-3.802169859E-1,-6.138499975E-1,1.965843387E0
2.588393644E0,1.832993031E0,-5.243480206E-1,-7.913910151E-1,2.064244180E0
2.593333644E0,1.799206018E0,-6.264039874E-1,-1.009461999E0,2.156046794E0
2.598273659E0,1.712111950E0,-7.136179805E-1,-1.282045960E0,2.254821455E0
2.603213428E0,1.543028951E0,-8.272910118E-1,-1.473202944E0,2.288159888E0
2.608153437E0,1.468171000E0,-9.401469827E-1,-1.596801996E0,2.364144465E0
2.613093360E0,1.391471982E0,-1.052245021E0,-1.707502961E0,2.441102256E0
2.618033360E0,1.353737950E0,-1.054936051E0,-1.873334050E0,2.540644992E0
2.622973130E0,1.354753017E0,-1.084419012E0,-1.930912018E0,2.596101222E0
2.627913130E0,1.394806981E0,-1.085513949E0,-1.962082028E0,2.640756129E0
2.632853053E0,1.460723996E0,-1.085669041E0,-1.953030944E0,2.669592052E0
2.637792832E0,1.552703023E0,-1.016744018E0,-1.930950999E0,2.678288042E0
2.642732832E0,1.820660949E0,-9.471409917E-1,-1.882101059E0,2.784634041E0
2.647672813E0,2.074160099E0,-8.491200209E-1,-1.820170999E0,2.887242177E0
2.652612813E0,2.013968945E0,-8.588989973E-1,-1.581588984E0,2.700963182E0
2.657552736E0,1.981150985E0,-1.017542005E0,-1.397683024E0,2.629423662E0
2.662492735E0,2.125408888E0,-8.630300164E-1,-1.322657943E0,2.647944067E0
2.667432504E0,2.228437901E0,-6.675180197E-1,-1.247728944E0,2.639761978E0
2.672372504E0,2.413021088E0,-5.130010247E-1,-1.227241993E0,2.755351834E0
2.677312504E0,2.610912085E0,-3.174529970E-1,-1.206843019E0,2.893805175E0
2.682252428E0,2.740669966E0,-6.757300347E-2,-1.186362982E0,2.987188494E0
2.687192452E0,2.897712946E0,1.416040063E-1,-1.179489970E0,3.131770841E0
2.692132221E0,3.027415991E0,3.372179866E-1,-1.213472009E0,3.278944627E0
2.697072221E0,3.102463961E0,4.784980118E-1,-1.220250964E0,3.367974969E0
2.702012221E0,3.109052896E0,6.331970096E-1,-1.254266024E0,3.411793022E0
2.706952144E0,3.128333092E0,8.020920157E-1,-1.247771025E0,3.462188912E0
2.711892144E0,2.956037045E0,6.581360102E-1,-1.050884008E0,3.205566286E0
2.716832140E0,2.824143887E0,4.601190090E-1,-8.814089894E-1,2.994057448E0
2.721771909E0,2.910103083E0,5.611249804E-1,-8.479390144E-1,3.082622547E0
2.726711894E0,2.928018093E0,6.756219864E-1,-8.552280068E-1,3.124287113E0
2.731651817E0,2.837336063E0,6.263899803E-1,-7.805740237E-1,3.008676811E0
2.736591817E0,2.733355045E0,6.044390202E-1,-7.330340147E-1,2.893771795E0
2.741531822E0,2.657032967E0,6.227290034E-1,-6.851819754E-1,2.813732385E0
2.746471822E0,2.594681978E0,6.545400023E-1,-6.099269986E-1,2.744596168E0
2.751411592E0,2.573751926E0,7.134850025E-1,-5.072150230E-1,2.718552355E0
2.756351582E0,2.512788057E0,7.728369832E-1,-3.907229900E-1,2.657827172E0
2.761291582E0,2.439579010E0,7.639579773E-1,-3.419069946E-1,2.579162254E0
2.766231279E0,2.380861044E0,7.414699793E-1,-3.336920142E-1,2.515875077E0
2.771171279E0,2.350152969E0,7.187460065E-1,-3.524259925E-1,2.482744224E0
2.776111279E0,2.237833977E0,6.959450245E-1,-3.302130103E-1,2.366702562E0
2.781051264E0,2.152652979E0,6.861220002E-1,-3.487020135E-1,2.286103965E0
2.785991187E0,2.094208956E0,5.533689857E-1,-3.944430053E-1,2.201706990E0
2.790930956E0,2.048089981E0,6.377189755E-1,-3.449470103E-1,2.172635842E0
2.795870952E0,1.973358989E0,7.076569796E-1,-3.092029989E-1,2.119087208E0
2.800810952E0,1.911407948E0,7.083730102E-1,-2.325289994E-1,2.051668199E0
2.805750889E0,1.862432957E0,6.946570277E-1,-1.830449998E-1,1.996173934E0
2.810690659E0,1.785454035E0,7.618309855E-1,-1.880220026E-1,1.950278143E0
2.815630659E0,1.721524000E0,8.417149782E-1,-1.656720042E-1,1.923428242E0
2.820570645E0,1.670673966E0,9.204450250E-1,-1.023190022E-1,1.910193635E0
2.825510568E0,1.632670999E0,1.011976957E0,-1.171300001E-2,1.920898005E0
2.830450568E0,1.621333957E0,1.156941056E0,9.262199700E-2,1.993944643E0
2.835390582E0,1.650635958E0,1.287307978E0,1.971359998E-1,2.102527883E0
2.840330351E0,1.694347024E0,1.416373968E0,3.021380007E-1,2.228949175E0
2.845270356E0,1.629726052E0,1.585495949E0,3.802359998E-1,2.305294737E0
2.850210279E0,1.593284011E0,1.685660958E0,4.451330006E-1,2.361810787E0
2.855150279E0,1.571383953E0,1.717182040E0,4.422729909E-1,2.369296749E0
2.860090269E0,1.468420029E0,1.761798024E0,5.077890158E-1,2.349050732E0
2.865030269E0,1.433913946E0,1.751549006E0,6.007180214E-1,2.341985326E0
2.869970053E0,1.290909052E0,1.672919989E0,6.802009940E-1,2.219860550E0
2.874910053E0,1.175904989E0,1.580747962E0,8.143320084E-1,2.131819243E0
2.879850053E0,1.089540958E0,1.502452016E0,8.942599893E-1,2.060136522E0
2.884789966E0,9.364950061E-1,1.356716037E0,9.471449852E-1,1.901258774E0
2.889729736E0,7.307019830E-1,1.184756041E0,1.013844967E0,1.722049326E0
2.894669736E0,5.537300110E-1,1.109477043E0,1.039778948E0,1.618238701E0
2.899609731E0,4.460709989E-1,9.402549863E-1,1.092952013E0,1.509172912E0
2.904549654E0,3.934440017E-1,9.496970177E-1,1.159554958E0,1.549609728E0
2.909489654E0,3.002519906E-1,1.110695958E0,1.348466992E0,1.772613889E0
2.914429625E0,2.892310023E-1,9.741809964E-1,1.360003948E0,1.697731995E0
2.919369317E0,2.907739878E-1,9.615970254E-1,1.439147949E0,1.755096912E0
2.924309381E0,3.304080069E-1,1.018412948E0,1.694478989E0,2.004393531E0
2.929249304E0,4.615469873E-1,1.103163004E0,1.962430954E0,2.298070818E0
2.934189312E0,5.744169950E-1,1.229136944E0,2.447196960E0,2.798125350E0
2.939129312E0,7.512609959E-1,1.340499043E0,2.904011011E0,3.285515290E0
2.944069005E0,9.785429835E-1,1.450229049E0,3.441989899E0,3.861088594E0
2.949009011E0,1.202728033E0,1.761445999E0,4.020724773E0,4.551425539E0
2.953949011E0,1.534268022E0,1.919850945E0,4.327325821E0,4.976500254E0
2.958888780E0,1.728621960E0,2.033458948E0,4.498310089E0,5.230476348E0
2.963828770E0,1.839162946E0,2.346605062E0,4.778761864E0,5.632551874E0
2.968768770E0,2.275448084E0,2.872560024E0,4.705871105E0,5.964435257E0
2.973708693E0,2.492408037E0,2.930326939E0,4.497526169E0,5.918332149E0
2.978648717E0,2.597341061E0,2.928090096E0,4.412274837E0,5.898140506E0
2.983588717E0,2.699083090E0,3.042924881E0,4.313944817E0,5.929128202E0
2.988528506E0,2.891947031E0,2.961246967E0,4.175224781E0,5.879187291E0
2.993468506E0,3.107995033E0,2.601373911E0,4.255024910E0,5.876394842E0
2.998408429E0,3.388130903E0,2.248646975E0,4.322062969E0,5.934313148E0
3.003348419E0,3.503197908E0,1.876921058E0,4.322213173E0,5.871690979E0
3.008288189E0,3.440094948E0,1.731259942E0,4.296551228E0,5.769910458E0
3.013228189E0,3.133594036E0,1.758559942E0,4.150039196E0,5.489514549E0
3.018168170E0,2.721602917E0,1.577690959E0,3.951062918E0,5.050458333E0
3.023108093E0,2.589502096E0,1.314136028E0,3.481714010E0,4.533740956E0
3.028048117E0,2.560056925E0,1.009374976E0,2.809855938E0,3.932940337E0
3.032988117E0,2.265073061E0,5.155190229E-1,2.111949921E0,3.139529949E0
3.037927886E0,1.894400001E0,9.249299765E-2,1.455603957E0,2.390834414E0
3.042867852E0,1.570111036E0,-1.474300027E-1,7.717069983E-1,1.755709533E0
3.047807852E0,1.181012988E0,-5.450599790E-1,3.050380051E-1,1.336012816E0
3.052747775E0,7.803990245E-1,-9.497529864E-1,2.049240023E-1,1.246213152E0
3.057687775E0,5.179560184E-1,-1.403257966E0,1.446090043E-1,1.502771812E0
3.062627775E0,3.126060069E-1,-1.973121047E0,-5.307900161E-2,1.998436029E0
3.067567558E0,5.185509920E-1,-1.829570055E0,-4.738700017E-2,1.902226917E0
3.072507481E0,7.158709764E-1,-1.856721997E0,-3.422650099E-1,2.019166454E0
3.077447481E0,7.816500068E-1,-2.068604946E0,-6.516439915E-1,2.305372648E0
3.082387472E0,1.068073988E0,-1.880282044E0,-7.849460244E-1,2.300517957E0
3.087327242E0,1.411322951E0,-1.455855966E0,-9.191089869E-1,2.226232332E0
3.092267242E0,1.539186954E0,-1.243996024E0,-1.081545949E0,2.255296927E0
3.097207165E0,1.492581964E0,-1.203655005E0,-1.081586003E0,2.201457374E0
3.102146934E0,1.596524000E0,-1.146582007E0,-9.869440198E-1,2.199453951E0
3.107086934E0,1.904471993E0,-1.101557016E0,-9.335600138E-1,2.389974003E0
3.112026934E0,2.265115976E0,-1.110661983E0,-7.715330124E-1,2.638102276E0
3.116966857E0,2.528462887E0,-1.215770960E0,-3.916679919E-1,2.832777332E0
3.121906876E0,2.708523989E0,-1.241161942E0,-1.885470003E-1,2.985319939E0
3.126846876E0,2.888283968E0,-1.364290953E0,4.244799912E-2,3.194569754E0
3.131786645E0,3.150155067E0,-1.409577966E0,2.745819986E-1,3.462048854E0
3.136726674E0,3.522528887E0,-1.377653003E0,2.494349927E-1,3.790561353E0
3.141666674E0,3.651401043E0,-1.268535972E0,6.237800047E-2,3.865980355E0
3.146606611E0,3.455435991E0,-1.094769955E0,-2.323029935E-1,3.632151404E0
3.151546611E0,3.124623060E0,-9.374600053E-1,-6.485049725E-1,3.326057611E0
3.156486381E0,2.862528086E0,-7.684429884E-1,-1.132115960E0,3.172736707E0
3.161426381E0,2.790066004E0,-5.864800215E-1,-1.656541944E0,3.297356264E0
3.166366304E0,2.784476995E0,-5.536969900E-1,-2.181313992E0,3.580226700E0
3.171306304E0,2.749437094E0,-5.871559978E-1,-2.598004103E0,3.828025838E0
3.176246318E0,2.671025038E0,-4.955900013E-1,-2.852366924E0,3.939033038E0
3.181186087E0,2.507663965E0,-4.684390128E-1,-2.985761881E0,3.927160257E0
3.186126077E0,2.286948919E0,-4.915690124E-1,-2.971030951E0,3.781375459E0
3.191066077E0,2.063097954E0,-6.054630280E-1,-2.849194050E0,3.569434882E0
3.196006000E0,1.863513947E0,-6.876289845E-1,-2.606570005E0,3.277151971E0
3.200945996E0,1.647668004E0,-7.656810284E-1,-2.311074018E0,2.939751760E0
3.205885765E0,1.443822026E0,-8.668439984E-1,-1.907996058E0,2.544894796E0
3.210825765E0,1.238916993E0,-9.647359848E-1,-1.546794057E0,2.204133093E0
3.215765793E0,1.061018944E0,-1.005337954E0,-1.118185043E0,1.840326979E0
3.220705717E0,8.698880076E-1,-1.003867984E0,-7.578169703E-1,1.529294816E0
3.225645500E0,7.206479907E-1,-9.060029984E-1,-4.655059874E-1,1.247746282E0
3.230585500E0,5.861480236E-1,-8.217689991E-1,-2.954460084E-1,1.051742429E0
3.235525500E0,5.069220066E-1,-7.515720129E-1,-1.522620022E-1,9.192465005E-1
3.240465486E0,4.684630036E-1,-7.789440155E-1,-6.294900179E-2,9.111388159E-1
3.245405409E0,5.924929976E-1,-3.592329919E-1,2.174990028E-1,7.262245596E-1
3.250345178E0,6.897379756E-1,-2.007980049E-1,3.216269910E-1,7.870846429E-1
3.255285110E0,7.883589864E-1,-2.764309943E-1,2.768549919E-1,8.800981039E-1
3.260225110E0,9.967010021E-1,-9.672600031E-2,1.785939932E-1,1.017184654E0
3.265165110E0,1.233232021E0,1.482670009E-1,-5.189999938E-4,1.242112954E0
3.270105110E0,1.375710964E0,2.139140069E-1,-1.515839994E-1,1.400470481E0
3.275044880E0,1.424474001E0,2.098969966E-1,-3.427990079E-1,1.480099351E0
3.279984808E0,1.515550017E0,3.268449903E-1,-5.605710149E-1,1.648623476E0
3.284924808E0,1.581096053E0,4.565359950E-1,-7.777680159E-1,1.820223319E0
3.289864808E0,1.634963989E0,4.904679954E-1,-1.008062005E0,1.982386215E0
3.294804592E0,1.595857978E0,3.747839928E-1,-1.156151056E0,2.005968841E0
3.299744592E0,1.613276005E0,3.686090112E-1,-1.426473975E0,2.184802067E0
3.304684615E0,1.673066020E0,5.131760240E-1,-1.710252047E0,2.446929014E0
3.309624538E0,1.692690969E0,6.722369790E-1,-1.898681045E0,2.630987453E0
3.314564538E0,1.726112008E0,7.642319798E-1,-2.005526066E0,2.754205509E0
3.319504288E0,1.772009969E0,8.294709921E-1,-2.126300097E0,2.889497111E0
3.324444288E0,1.884799004E0,9.496809840E-1,-2.192923069E0,3.043562525E0
3.329384288E0,2.009393930E0,1.002452970E0,-2.219194889E0,3.157119237E0
3.334324221E0,2.077619076E0,1.055716038E0,-2.123382092E0,3.152743073E0
3.339264221E0,2.211808920E0,1.177109003E0,-2.055270910E0,3.240651604E0
3.344204221E0,2.303528070E0,1.230780005E0,-1.960343003E0,3.265578920E0
3.349143991E0,2.148869038E0,9.442110062E-1,-1.784003019E0,2.948192554E0
3.354083981E0,1.979765058E0,7.805060148E-1,-1.648748994E0,2.692031309E0
3.359023904E0,1.973238945E0,7.664620280E-1,-1.568117976E0,2.634412641E0
3.363963904E0,1.925307989E0,6.709020138E-1,-1.474015951E0,2.515878254E0
3.368903693E0,1.849681020E0,5.347830057E-1,-1.352815032E0,2.353172592E0
3.373843693E0,1.814753056E0,4.672499895E-1,-1.258968949E0,2.257577024E0
3.378783616E0,1.874531984E0,4.542739987E-1,-1.219743967E0,2.282106564E0
3.383723405E0,1.960595965E0,5.508710146E-1,-1.139981031E0,2.333870640E0
3.388663636E0,1.950109959E0,6.618620157E-1,-1.060632944E0,2.316448234E0
3.393603405E0,1.979033947E0,7.192040086E-1,-9.545239806E-1,2.311913882E0
3.398543385E0,1.965441942E0,7.502520084E-1,-8.762030005E-1,2.278940939E0
3.403483308E0,1.908362031E0,8.091179729E-1,-7.985810041E-1,2.221316987E0
3.408423308E0,1.861323953E0,9.504500031E-1,-6.129480004E-1,2.177977804E0
3.413363064E0,1.865059018E0,1.051177979E0,-3.192259967E-1,2.164561277E0
3.418303064E0,1.933681011E0,9.751780033E-1,-6.712699682E-2,2.166702662E0
3.423243045E0,2.108532906E0,1.306741953E0,3.752770126E-1,2.508848019E0
3.428182968E0,2.132422924E0,1.365579963E0,7.766870260E-1,2.648637177E0
3.433122737E0,2.060935974E0,1.260036945E0,9.876430035E-1,2.609710500E0
3.438062737E0,2.070825100E0,1.493065000E0,1.239792943E0,2.838070864E0
3.443002737E0,2.054513931E0,1.559942961E0,1.370131969E0,2.920909302E0
3.447942660E0,1.984722018E0,1.569947958E0,1.501160979E0,2.942336209E0
3.452882660E0,1.943464994E0,1.631757975E0,1.564880967E0,2.981365914E0
3.457822660E0,1.903051019E0,1.772387981E0,1.520352960E0,3.012380364E0
3.462762429E0,1.890524983E0,1.869114041E0,1.531000972E0,3.067838977E0
3.467702353E0,1.891662955E0,1.949584007E0,1.555753946E0,3.130437171E0
3.472642353E0,1.879331946E0,2.041033030E0,1.553776979E0,3.179925674E0
3.477582362E0,1.880877972E0,2.075643063E0,1.593147993E0,3.222439541E0
3.482522131E0,1.828812003E0,2.094670057E0,1.673928022E0,3.245648012E0
3.487462107E0,1.791739941E0,2.057411909E0,1.714476943E0,3.222220813E0
3.492402107E0,1.825009942E0,1.950606942E0,1.701295018E0,3.167007021E0
3.497342030E0,1.806395054E0,1.787786961E0,1.579988956E0,2.992592590E0
3.502282011E0,1.681722045E0,1.801427960E0,1.554764032E0,2.913867349E0
3.507221780E0,1.560217023E0,1.787493944E0,1.543905973E0,2.830734430E0
3.512161780E0,1.469290018E0,1.760218978E0,1.397516012E0,2.685188078E0
3.517101765E0,1.381111026E0,1.733268976E0,1.183565974E0,2.512472373E0
3.522041688E0,1.349339008E0,1.734287977E0,9.562950134E-1,2.396449603E0
3.526981688E0,1.373303056E0,1.681447029E0,7.292010188E-1,2.290187661E0
3.531921688E0,1.396968961E0,1.506929040E0,5.427619815E-1,2.125311266E0
3.536861357E0,1.391778946E0,1.687021017E0,6.555539966E-1,2.283164381E0
3.541801357E0,1.303197980E0,1.636597037E0,7.541890144E-1,2.223865083E0
3.546741357E0,1.158452988E0,1.613662958E0,9.205279946E-1,2.189359097E0
3.551681343E0,1.175176024E0,1.740309954E0,1.113736033E0,2.376999238E0
3.556621112E0,1.271998048E0,1.730187058E0,1.238613009E0,2.479049914E0
3.561561020E0,1.203420043E0,1.692229033E0,1.499397039E0,2.561259530E0
3.566501020E0,1.037628055E0,1.816540956E0,1.800876975E0,2.760371516E0
3.571440789E0,8.837990165E-1,2.007425070E0,2.006977081E0,2.973014147E0
3.576380760E0,8.780320287E-1,2.155261040E0,2.213155985E0,3.211565009E0
3.581320760E0,9.798899889E-1,2.232608080E0,2.405939102E0,3.425385554E0
3.586260668E0,1.121662974E0,2.279951096E0,2.544644117E0,3.596042062E0
3.591200668E0,1.249181032E0,2.270262957E0,2.615695000E0,3.681902698E0
3.596140668E0,1.281031966E0,2.203448057E0,2.619196892E0,3.654643430E0
3.601080438E0,1.217265010E0,2.148833036E0,2.541305065E0,3.543649102E0
3.606020438E0,1.125450969E0,2.133395910E0,2.436456919E0,3.428460341E0
3.610960361E0,1.087072968E0,2.103363991E0,2.358947039E0,3.342229622E0
3.615900366E0,1.238486052E0,2.058804035E0,2.240700960E0,3.285310114E0
3.620840135E0,1.321199059E0,1.864990950E0,2.095082045E0,3.100504309E0
3.625780145E0,1.375213981E0,1.684934020E0,2.208034992E0,3.099295835E0
3.630720068E0,1.415439010E0,1.409767985E0,2.239295959E0,3.000893160E0
3.635660068E0,1.346817970E0,1.067057967E0,2.147985935E0,2.750704442E0
3.640600068E0,1.305382967E0,7.804350257E-1,2.056395054E0,2.557706812E0
3.645539837E0,1.358644962E0,5.357739925E-1,1.964512944E0,2.447913604E0
3.650479837E0,1.370609045E0,2.384919971E-1,1.994773030E0,2.431988287E0
3.655419841E0,1.355113029E0,-1.612499915E-2,2.147216082E0,2.539119580E0
3.660359764E0,1.217955947E0,-2.413270026E-1,2.381102085E0,2.685386853E0
3.665299769E0,1.137065053E0,-5.336220264E-1,2.547048092E0,2.839916088E0
3.670239769E0,1.154345036E0,-8.115370274E-1,2.509103060E0,2.878663400E0
3.675179539E0,1.188088059E0,-1.034482002E0,2.403529882E0,2.873788814E0
3.680119525E0,1.211701989E0,-1.147207022E0,2.134902000E0,2.709633225E0
3.685059525E0,1.388429999E0,-1.163460016E0,1.730445981E0,2.505158751E0
3.689999217E0,1.636047959E0,-1.069028974E0,1.271623969E0,2.331631058E0
3.694939236E0,1.790542006E0,-9.320690036E-1,9.081590176E-1,2.213491835E0
3.699879236E0,1.892063975E0,-8.202400208E-1,5.580710173E-1,2.136385508E0
3.704819163E0,1.981575966E0,-7.745839953E-1,2.486629933E-1,2.142068383E0
3.709758932E0,1.990635991E0,-7.815189958E-1,3.435900062E-2,2.138827747E0
3.714698932E0,2.014134884E0,-7.323439717E-1,-1.529619992E-1,2.148595913E0
3.719638847E0,1.860703945E0,-7.765920162E-1,-3.679989874E-1,2.049570098E0
3.724578847E0,1.706820965E0,-9.829009771E-1,-3.655579984E-1,2.003238575E0
3.729518847E0,1.715268970E0,-1.080188990E0,-3.224849999E-1,2.052547799E0
3.734458630E0,1.654006004E0,-1.096526027E0,-3.476209939E-1,2.014682492E0
3.739398553E0,1.413465023E0,-1.113806963E0,-3.320840001E-1,1.829953307E0
3.744338630E0,1.171195984E0,-1.091343045E0,-2.757279873E-1,1.624424698E0
3.749278553E0,9.957360029E-1,-1.056692958E0,-2.737250030E-1,1.477503155E0
3.754218568E0,9.690250158E-1,-9.963819981E-1,-2.851260006E-1,1.418831704E0
3.759158337E0,9.554190040E-1,-8.831760287E-1,-3.779149950E-1,1.354859814E0
3.764098337E0,9.151690006E-1,-7.849659920E-1,-4.701960087E-1,1.294136853E0
3.769038356E0,9.447010159E-1,-7.283480167E-1,-6.708829999E-1,1.368588632E0
3.773978279E0,8.537470102E-1,-8.901990056E-1,-1.020800948E0,1.601053654E0
3.778918049E0,8.459429741E-1,-6.296669841E-1,-1.111665010E0,1.532285588E0
3.783858064E0,8.133270144E-1,-5.862209797E-1,-1.379307032E0,1.705181444E0
3.788798064E0,8.102809787E-1,-7.864800096E-1,-1.823919058E0,2.145177568E0
3.793737982E0,8.489019871E-1,-7.943040133E-1,-2.146249056E0,2.440888867E0
3.798677982E0,8.595420122E-1,-8.132699728E-1,-2.483032942E0,2.750576869E0
3.803617982E0,7.872530222E-1,-8.430939913E-1,-2.739110947E0,2.972087411E0
3.808557785E0,7.405179739E-1,-9.513649940E-1,-2.928358078E0,3.166819107E0
3.813497708E0,8.140519857E-1,-1.055953026E0,-3.023787975E0,3.304695318E0
3.818437708E0,9.936339855E-1,-1.006960034E0,-3.025544882E0,3.339939946E0
3.823377708E0,9.656270146E-1,-9.681649804E-1,-2.933604956E0,3.236636680E0
3.828317477E0,8.935700059E-1,-9.532340169E-1,-2.761542082E0,3.055034716E0
3.833257477E0,1.008461952E0,-8.945119977E-1,-2.441221952E0,2.788675643E0
3.838197453E0,1.324288011E0,-7.788119912E-1,-1.972419024E0,2.500144727E0
3.843137146E0,1.515771985E0,-7.704889774E-1,-1.504346967E0,2.270303454E0
3.848077361E0,1.597898960E0,-7.334089875E-1,-1.118407965E0,2.083748115E0
3.853017131E0,1.735159993E0,-6.818169951E-1,-8.823090196E-1,2.062552744E0
3.857957112E0,1.941115975E0,-7.112979889E-1,-8.096150160E-1,2.220214524E0
3.862897035E0,2.093096972E0,-5.911660194E-1,-6.685699821E-1,2.275416009E0
3.867836804E0,2.136039019E0,-3.345119953E-1,-4.458119869E-1,2.207557313E0
3.872776804E0,2.110698938E0,-4.591999948E-1,-3.728320003E-1,2.192012396E0
3.877716804E0,2.233524084E0,-4.206559956E-1,-1.910720021E-1,2.280809026E0
3.882656746E0,2.395859957E0,-2.065040022E-1,4.499999806E-3,2.404747198E0
3.887596515E0,2.516441107E0,-6.603999995E-3,1.592849940E-1,2.521485904E0
3.892536515E0,2.568768978E0,1.107600033E-1,2.598440051E-1,2.584252454E0
3.897476510E0,2.593816042E0,2.137250006E-1,3.061900139E-1,2.620555735E0
3.902416433E0,2.605700970E0,3.697400093E-1,3.394210041E-1,2.653599788E0
3.907356443E0,2.603815079E0,5.928810239E-1,3.729279935E-1,2.696374633E0
3.912296443E0,2.534230947E0,7.330080271E-1,3.932600021E-1,2.667260897E0
3.917236213E0,2.533061981E0,8.447279930E-1,4.412209988E-1,2.706408017E0
3.922176213E0,2.423774958E0,9.272850156E-1,4.217309952E-1,2.629144267E0
3.927116136E0,2.369609118E0,1.035609961E0,4.572210014E-1,2.626135260E0
3.932056136E0,2.316358089E0,1.114941001E0,4.252099991E-1,2.605649972E0
3.936995891E0,2.237075090E0,1.137949944E0,3.121379912E-1,2.529202475E0
3.941935891E0,2.200090885E0,1.172562957E0,1.997949928E-1,2.501044148E0
3.946875900E0,2.150353909E0,1.137596965E0,8.795300126E-2,2.434313973E0
3.951815823E0,2.047044039E0,1.074043989E0,5.830600113E-2,2.312435810E0
3.956755823E0,1.930914998E0,1.036602020E0,5.629900098E-2,2.192292420E0
3.961695814E0,1.870396018E0,9.707469940E-1,6.837599725E-2,2.108413211E0
3.966635583E0,1.879147053E0,9.447399974E-1,9.450399876E-2,2.105387925E0
3.971575583E0,1.861588955E0,9.451069832E-1,8.012700081E-2,2.089296768E0
3.976515482E0,1.872565985E0,9.989510179E-1,6.619700044E-2,2.123390813E0
3.981455482E0,1.857542992E0,1.011113048E0,-6.992000341E-2,2.116058687E0
3.986395467E0,1.843608022E0,9.952620268E-1,-1.920589954E-1,2.103883005E0
3.991335236E0,1.830749989E0,9.649860263E-1,-3.138329983E-1,2.093163802E0
3.996275159E0,1.764397025E0,9.477329850E-1,-5.306450129E-1,2.071926351E0
4.001215149E0,1.685070038E0,9.298750162E-1,-7.744500041E-1,2.074584630E0
4.006155149E0,1.619783044E0,8.161529899E-1,-1.004441977E0,2.073332220E0
4.011094918E0,1.513612032E0,7.566519976E-1,-1.234375954E0,2.094570988E0
4.016034890E0,1.379940987E0,7.379099727E-1,-1.450706959E0,2.133846043E0
4.020974582E0,1.299957037E0,7.330719829E-1,-1.612754941E0,2.197330501E0
4.025914591E0,1.218986988E0,7.967349887E-1,-1.720579028E0,2.254131343E0
4.030854592E0,1.150596976E0,8.064280152E-1,-1.760596037E0,2.252531454E0
4.035794515E0,1.176705956E0,8.304830194E-1,-1.760064960E0,2.274240008E0
4.040734520E0,1.216151953E0,8.825230002E-1,-1.759750962E0,2.313999971E0
4.045674520E0,1.173794985E0,8.264250159E-1,-1.759639025E0,2.270925466E0
4.050614289E0,1.158489943E0,8.666009903E-1,-1.759771943E0,2.278133779E0
4.055554298E0,1.197337985E0,1.016795993E0,-1.705721021E0,2.318830857E0
4.060494221E0,1.249537945E0,1.113584042E0,-1.624721050E0,2.332623627E0
4.065434231E0,1.329112053E0,1.184368014E0,-1.516739964E0,2.338753207E0
4.070374231E0,1.368090987E0,1.229303002E0,-1.354547024E0,2.284219004E0
4.075314000E0,1.393754005E0,1.248625994E0,-1.192669034E0,2.219026031E0
4.080253928E0,1.406169057E0,1.242339969E0,-1.058334947E0,2.154249956E0
4.085193928E0,1.378023982E0,1.292183042E0,-7.744910121E-1,2.041696215E0
4.090133928E0,1.404783010E0,1.343515038E0,-4.636569917E-1,1.998355767E0
4.095073674E0,1.418218970E0,1.341616988E0,-1.939020008E-1,1.961856054E0
4.100013674E0,1.404142976E0,1.353873968E0,8.932299912E-2,1.952580553E0
4.104953659E0,1.280815005E0,1.325871944E0,3.996259868E-1,1.886299133E0
4.109893582E0,1.225309014E0,1.325171947E0,6.554039717E-1,1.920160732E0
4.114833582E0,1.210031986E0,1.365175009E0,9.247469902E-1,2.045247469E0
4.119773356E0,1.167122960E0,1.377015948E0,1.221483946E0,2.179534803E0
4.124713356E0,1.096897006E0,1.333735943E0,1.436637998E0,2.246322182E0
4.129653380E0,1.041023970E0,1.289319992E0,1.652173042E0,2.340032630E0
4.134593303E0,9.588739872E-1,1.175562978E0,1.691082001E0,2.271815567E0
4.139533303E0,9.319660068E-1,1.318730950E0,1.812244058E0,2.427311369E0
4.144473318E0,8.930109739E-1,1.202097058E0,1.688724041E0,2.257054457E0
4.149413010E0,8.816949725E-1,1.138890982E0,1.470157027E0,2.058110876E0
4.154353029E0,9.223409891E-1,1.333570004E0,1.360316992E0,2.116502817E0
4.159293029E0,9.045500159E-1,1.445582986E0,1.427073002E0,2.223613782E0
4.164232799E0,9.234830141E-1,1.488803029E0,1.683964968E0,2.430039783E0
4.169172799E0,1.047950029E0,1.585369945E0,1.967772961E0,2.735640245E0
4.174112722E0,1.196943998E0,1.721040010E0,2.142551899E0,2.997529365E0
4.179052491E0,1.235177994E0,1.663884997E0,2.331127882E0,3.119027920E0
4.183992510E0,1.339995980E0,1.740522981E0,2.560854912E0,3.373868307E0
4.188932510E0,1.525699019E0,2.059650898E0,2.613984108E0,3.660987877E0
4.193872448E0,1.779284000E0,2.362559080E0,2.654052973E0,3.973856332E0
4.198812448E0,1.828894019E0,2.363682985E0,2.640194893E0,3.987791326E0
4.203752217E0,1.961200953E0,2.621805906E0,2.436238050E0,4.081106618E0
4.208692232E0,1.834583998E0,2.687046051E0,2.382613897E0,4.032711731E0
4.213632232E0,1.858178020E0,2.627931118E0,2.234153986E0,3.917944812E0
4.218572155E0,2.031744957E0,2.567207098E0,1.977174997E0,3.824625580E0
4.223512151E0,2.096510887E0,2.437519073E0,1.761345983E0,3.665951009E0
4.228451920E0,2.092433929E0,2.279706955E0,1.600165963E0,3.483658229E0
4.233391920E0,1.965054989E0,2.121578932E0,1.548001051E0,3.280067915E0
4.238331853E0,1.837013960E0,1.881585956E0,1.509482980E0,3.032082595E0
4.243271853E0,1.736578941E0,1.696756005E0,1.470947981E0,2.838727765E0
4.248211853E0,1.622954011E0,1.567051053E0,1.473266959E0,2.694465486E0
4.253151622E0,1.524438977E0,1.370411992E0,1.461974978E0,2.517799448E0
4.258091622E0,1.523383021E0,1.202337027E0,1.382616043E0,2.382842269E0
4.263031549E0,1.525467992E0,1.050225019E0,1.412130952E0,2.328978104E0
4.267971549E0,1.503296971E0,8.595780134E-1,1.468757987E0,2.270688479E0
4.272911318E0,1.402629018E0,6.035100222E-1,1.511562943E0,2.148584427E0
4.277851309E0,1.236775994E0,3.228270113E-1,1.594985008E0,2.043969010E0
4.282791233E0,1.087306023E0,9.918099642E-2,1.637290001E0,1.967940498E0
4.287731218E0,9.126260281E-1,-1.091599986E-1,1.665832043E0,1.902576823E0
4.292670987E0,8.487380147E-1,-3.569740057E-1,1.626173973E0,1.868750505E0
4.297611218E0,9.226030111E-1,-5.357130170E-1,1.532003045E0,1.866873880E0
4.302550910E0,9.835379720E-1,-6.866080165E-1,1.505880952E0,1.925215560E0
4.307490910E0,1.004063010E0,-7.827200294E-1,1.575093031E0,2.025268187E0
4.312430910E0,1.011865020E0,-8.385090232E-1,1.590080976E0,2.062844083E0
4.317370679E0,1.075160027E0,-8.680660129E-1,1.496498942E0,2.036913540E0
4.322310679E0,1.289077997E0,-4.768170118E-1,1.594071984E0,2.104790260E0
4.327250588E0,1.329403996E0,-6.038709879E-1,1.379047036E0,2.008418752E0
4.332190358E0,1.414105058E0,-6.913030148E-1,9.605370164E-1,1.843969721E0
4.337130358E0,1.500615954E0,-5.764229894E-1,5.972949862E-1,1.714897375E0
4.342070314E0,1.682530046E0,-4.768199921E-1,3.979629874E-1,1.793499149E0
4.347010237E0,2.042680979E0,-3.108409941E-1,3.491089940E-1,2.095481996E0
4.351950006E0,2.200747967E0,-6.362299919E-1,1.487599965E-2,2.290917177E0
4.356890025E0,2.251080036E0,-6.641160250E-1,-3.049339950E-1,2.366726889E0
4.361830025E0,2.573173046E0,-7.074499726E-1,-6.651520133E-1,2.750296746E0
4.366769929E0,2.758378983E0,-7.523710132E-1,-1.079462051E0,3.056134008E0
4.371709929E0,2.778451920E0,-7.437660098E-1,-1.330255032E0,3.169000062E0
4.376649698E0,3.001600981E0,-4.903770089E-1,-1.526576042E0,3.403015203E0
4.381589698E0,3.074132919E0,-5.898320079E-1,-1.845867038E0,3.633926268E0
4.386529621E0,3.064239025E0,-4.293589890E-1,-2.029300928E0,3.700266504E0
4.391469621E0,3.161900043E0,-4.036700130E-1,-2.226902962E0,3.888400464E0
4.396409405E0,3.204014063E0,-4.713070095E-1,-2.438793898E0,4.054078451E0
4.401349405E0,3.095000029E0,-5.494229794E-1,-2.474649906E0,4.000597823E0
4.406289395E0,2.972069979E0,-5.972939730E-1,-2.456861973E0,3.902067504E0
4.411229395E0,2.930883884E0,-6.420019865E-1,-2.508009911E0,3.910544797E0
4.416169318E0,2.862509012E0,-7.926790118E-1,-2.437362909E0,3.842269617E0
4.421109332E0,2.794074059E0,-9.539989829E-1,-2.449243069E0,3.836112031E0
4.426049101E0,2.658274889E0,-1.057759047E0,-2.461811066E0,3.774359987E0
4.430989101E0,2.332110882E0,-1.144621015E0,-2.502432108E0,3.607085373E0
4.435929038E0,1.937770963E0,-1.173457026E0,-2.557614088E0,3.416628092E0
4.440869038E0,1.609819055E0,-1.185341954E0,-2.518623114E0,3.215589421E0
4.445808798E0,1.333559990E0,-1.180083990E0,-2.331214905E0,2.933520650E0
4.450748798E0,1.053519964E0,-1.076323032E0,-1.954597950E0,2.467555213E0
4.455688721E0,8.376920223E-1,-9.696890116E-1,-1.443184972E0,1.929976053E0
4.460628500E0,7.683590055E-1,-7.799140215E-1,-8.918150067E-1,1.412081955E0
4.465568500E0,8.198490143E-1,-6.162710190E-1,-3.682090044E-1,1.089734025E0
4.470508500E0,8.982589841E-1,-4.389230013E-1,1.009220034E-1,1.004842204E0
4.475448486E0,9.906740189E-1,-2.755750120E-1,4.341030121E-1,1.116163977E0
4.480388178E0,1.111443043E0,-1.003110036E-1,7.135069966E-1,1.324560368E0
4.485328192E0,1.152204037E0,7.342799753E-2,8.574640155E-1,1.438127376E0
4.490268115E0,1.235560060E0,2.586930096E-1,9.069600105E-1,1.554383220E0
4.495208115E0,1.307160974E0,4.554780126E-1,8.483849764E-1,1.623541530E0
4.500148130E0,1.421306968E0,6.358810067E-1,7.771930099E-1,1.740254903E0
4.505087899E0,1.495633006E0,8.278719783E-1,6.249819994E-1,1.820135325E0
4.510027899E0,1.598152995E0,9.769189954E-1,5.143200159E-1,1.942418286E0
4.514967847E0,1.633720040E0,1.055935025E0,3.907200098E-1,1.984112415E0
4.519907847E0,1.656620979E0,1.133016944E0,2.269040048E-1,2.019803429E0
4.524847861E0,1.748723030E0,1.195114970E0,9.142999537E-3,2.118116055E0
4.529787630E0,1.828143954E0,1.228788972E0,-2.081499994E-1,2.212545836E0
4.534727645E0,1.867637992E0,1.261796951E0,-3.161360025E-1,2.275993231E0
4.539667568E0,1.839401960E0,1.252954006E0,-4.238060117E-1,2.265591501E0
4.544607337E0,1.825410962E0,1.243214965E0,-5.447509885E-1,2.274744440E0
4.549547370E0,1.825605989E0,1.259847999E0,-6.245080233E-1,2.304357714E0
4.554487370E0,1.826774001E0,1.221264005E0,-7.038859725E-1,2.307389105E0
4.559427293E0,1.828498960E0,1.140961051E0,-8.646559715E-1,2.322246868E0
4.564367274E0,1.831030965E0,1.114469051E0,-9.978479743E-1,2.364406107E0
4.569307274E0,1.820392013E0,1.019075990E0,-1.212460041E0,2.412965458E0
4.574247053E0,1.809622049E0,9.639999866E-1,-1.467805982E0,2.521603128E0
4.579187054E0,1.770511031E0,8.814659715E-1,-1.559851050E0,2.518893977E0
4.584126977E0,1.743986011E0,7.306259871E-1,-1.597553968E0,2.475374764E0
4.589066977E0,1.647984028E0,5.934169888E-1,-1.690001011E0,2.433947102E0
4.594006746E0,1.550155997E0,5.110650063E-1,-1.755653024E0,2.397183472E0
4.598946746E0,1.545016050E0,4.292500019E-1,-1.740247011E0,2.366387504E0
4.603886727E0,1.564640999E0,4.024919868E-1,-1.643761039E0,2.304788842E0
4.608826419E0,1.663643003E0,4.169740081E-1,-1.575091004E0,2.328623421E0
4.613766414E0,1.801316977E0,3.776600063E-1,-1.547896028E0,2.404860088E0
4.618706414E0,1.841609955E0,3.801029921E-1,-1.466850996E0,2.384880994E0
4.623646414E0,1.880242944E0,4.379529953E-1,-1.345502973E0,2.353188178E0
4.628586317E0,1.903839946E0,5.240989923E-1,-1.142968059E0,2.281592049E0
4.633526087E0,1.953616023E0,5.836880207E-1,-9.135649800E-1,2.234257873E0
4.638466010E0,2.002749920E0,6.982589960E-1,-7.797449827E-1,2.259773242E0
4.643406001E0,2.051399946E0,8.265269995E-1,-6.460360289E-1,2.304072736E0
4.648346001E0,2.126796961E0,1.050127029E0,-5.124189854E-1,2.426644866E0
4.653285770E0,2.229217052E0,1.205201983E0,-4.332239926E-1,2.570914918E0
4.658225775E0,2.372298956E0,1.305258989E0,-3.267019987E-1,2.727313250E0
4.663165698E0,2.379177094E0,1.432024002E0,-2.064329982E-1,2.784562976E0
4.668105688E0,2.331283092E0,1.585492015E0,-4.523399845E-2,2.819700676E0
4.673045688E0,2.296567917E0,1.683696032E0,1.432960033E-1,2.851243635E0
4.677985457E0,2.370593071E0,1.740046978E0,3.864910007E-1,2.965948463E0
4.682925490E0,2.377222061E0,1.876708984E0,6.573889852E-1,3.099255010E0
4.687865413E0,2.275791883E0,2.025552988E0,8.062099814E-1,3.151518386E0
4.692805183E0,2.230001926E0,2.077528954E0,9.011240005E-1,3.178216419E0
4.697745183E0,2.253516912E0,2.141503096E0,1.091984987E0,3.294966646E0
4.702685183E0,2.265377045E0,2.217700005E0,1.215451002E0,3.395209508E0
4.707625102E0,2.224695921E0,2.210630894E0,1.257930994E0,3.379134693E0
4.712565102E0,2.131593943E0,2.188478947E0,1.273915052E0,3.309983746E0
4.717504871E0,1.985710979E0,2.151220083E0,1.249724030E0,3.183175473E0
4.722444856E0,1.827139974E0,2.071604967E0,1.171591997E0,3.000435873E0
4.727384856E0,1.655470014E0,2.003948927E0,1.134824991E0,2.836233423E0
4.732324779E0,1.552093983E0,1.907313943E0,1.071280003E0,2.682253353E0
4.737264774E0,1.489706039E0,1.836264968E0,1.021796942E0,2.575880841E0
4.742204543E0,1.400022030E0,1.723019958E0,1.054370999E0,2.457754598E0
4.747144519E0,1.378937960E0,1.580924988E0,1.114712000E0,2.375579204E0
4.752084519E0,1.358590961E0,1.450934052E0,1.175613999E0,2.309339147E0
4.757024442E0,1.311786056E0,1.251129031E0,1.182669044E0,2.164442786E0
4.761964428E0,1.306722045E0,1.159060001E0,1.163030028E0,2.098471214E0
4.766904121E0,1.261713028E0,8.338270187E-1,9.125139713E-1,1.766315094E0
4.771844121E0,1.284281969E0,1.119889975E0,9.347879887E-1,1.943543752E0
4.776784140E0,1.252699971E0,1.241513968E0,9.711019993E-1,2.013368631E0
4.781724140E0,1.276821971E0,9.956780076E-1,8.170189857E-1,1.813606645E0
4.786663808E0,1.410544038E0,1.048692942E0,7.314860225E-1,1.903802293E0
4.791603808E0,1.544376969E0,1.237656951E0,6.325359941E-1,2.077738370E0
4.796543808E0,1.528576970E0,1.236269951E0,5.200330019E-1,2.033554835E0
4.801483601E0,1.471258044E0,1.263766050E0,4.751569927E-1,1.996867304E0
4.806423601E0,1.440189958E0,1.455863953E0,4.843299985E-1,2.104343724E0
4.811363525E0,1.353158951E0,1.731012940E0,5.882419944E-1,2.274527113E0
4.816303279E0,1.319164991E0,1.952533007E0,6.780570149E-1,2.452007898E0
4.821243279E0,1.419726968E0,2.202785969E0,6.990569830E-1,2.712300012E0
4.826183290E0,1.491556048E0,2.330924034E0,7.332730293E-1,2.862802060E0
4.831123213E0,1.520488977E0,2.350749969E0,7.805280089E-1,2.906395727E0
4.836063213E0,1.492352962E0,2.370986938E0,8.271399736E-1,2.921105435E0
4.841002987E0,1.420012951E0,2.405802011E0,9.272599816E-1,2.943489625E0
4.845942987E0,1.316843033E0,2.386552095E0,1.080989003E0,2.932276198E0
4.850882987E0,1.291545033E0,2.354070902E0,1.288282990E0,2.978155713E0
4.855822923E0,1.303302050E0,2.240128040E0,1.658164978E0,3.076732189E0
4.860762923E0,1.298630953E0,2.017807961E0,1.986464977E0,3.115129921E0
4.865702674E0,1.209486008E0,1.808699965E0,2.300750017E0,3.166654798E0
4.870642675E0,1.104763031E0,1.517598033E0,2.710130930E0,3.296727893E0
4.875582675E0,1.066738009E0,1.253484011E0,3.105768919E0,3.514961269E0
4.880522607E0,1.055824995E0,1.003250003E0,3.515023947E0,3.804821985E0
4.885462376E0,1.086001992E0,6.979449987E-1,3.951854944E0,4.157365157E0
4.890402376E0,1.117131948E0,3.917709887E-1,4.184947968E0,4.349167482E0
4.895342266E0,1.394415021E0,5.338119864E-1,4.173573017E0,4.432613249E0
4.900282266E0,1.755483985E0,7.980809808E-1,4.149199963E0,4.575425401E0
4.905222266E0,1.547258973E0,4.761970043E-1,4.275442123E0,4.571671387E0
4.910162035E0,1.234331965E0,8.606000245E-2,4.361784935E0,4.533889009E0
4.915102035E0,8.993589878E-1,-3.318459988E-1,4.204211235E0,4.312117863E0
4.920041699E0,6.518679857E-1,-6.951630116E-1,3.720891953E0,3.840992112E0
4.924981699E0,8.851770163E-1,-5.958920121E-1,2.898082018E0,3.088285127E0
4.929921699E0,1.542922974E0,3.476899862E-2,1.966739058E0,2.499976542E0
4.934861694E0,1.683107018E0,9.391099960E-2,1.443897009E0,2.219573627E0
4.939801386E0,1.590814948E0,-2.674989998E-1,1.260876060E0,2.047451184E0
4.944741395E0,1.551514030E0,-4.779079854E-1,1.049976945E0,1.933402030E0
4.949681318E0,1.551177979E0,-5.103089809E-1,8.792899847E-1,1.854648014E0
4.954621395E0,1.549093962E0,-6.372910142E-1,7.897639871E-1,1.851906881E0
4.959561342E0,1.641245961E0,-8.589720130E-1,6.998360157E-1,1.980225157E0
4.964501111E0,1.746636033E0,-1.081056952E0,5.419120193E-1,2.124403493E0
4.969441111E0,1.770313978E0,-1.222056031E0,3.978750110E-1,2.187632750E0
4.974381058E0,1.767245054E0,-1.323364019E0,1.726689935E-1,2.214556838E0
4.979321058E0,1.737594962E0,-1.452422023E0,-1.202789992E-1,2.267869710E0
4.984261034E0,1.640167952E0,-1.487058043E0,-3.719229996E-1,2.244954176E0
4.989200804E0,1.460922956E0,-1.440629005E0,-5.415700078E-1,2.122028720E0
4.994140804E0,1.336354971E0,-1.299304008E0,-7.381970286E-1,2.004736982E0
4.999080756E0,1.321491003E0,-1.211807966E0,-1.043823004E0,2.074700817E0
5.004020525E0,1.239420056E0,-1.096549034E0,-1.281311035E0,2.092926140E0
5.008960525E0,1.144418001E0,-9.396510124E-1,-1.464416981E0,2.082583415E0
5.013900530E0,1.172817945E0,-8.090609908E-1,-1.661285043E0,2.188595352E0
5.018840453E0,1.243029952E0,-6.765339971E-1,-1.885892987E0,2.357840976E0
5.023780453E0,1.218788981E0,-5.424039960E-1,-2.042795897E0,2.439808138E0
5.028720227E0,1.113680959E0,-4.610080123E-1,-2.132066965E0,2.449188276E0
5.033660227E0,1.173099995E0,-4.595910013E-1,-2.317107916E0,2.637494375E0
5.038600150E0,1.205901980E0,-4.701209962E-1,-2.570749044E0,2.878187622E0
5.043540155E0,1.170366049E0,-4.920240045E-1,-2.689083099E0,2.973720267E0
5.048480155E0,1.230144024E0,-6.341720223E-1,-2.781075001E0,3.106413790E0
5.053419925E0,1.385833979E0,-7.734659910E-1,-2.874052048E0,3.283132746E0
5.058359920E0,1.310389996E0,-9.098809958E-1,-2.981677055E0,3.381627334E0
5.063299843E0,1.179689050E0,-9.615870118E-1,-3.049750090E0,3.408414799E0
5.068239833E0,1.006631970E0,-1.310296059E0,-3.064661026E0,3.481713786E0
5.073179602E0,1.130341053E0,-1.112069011E0,-2.781320095E0,3.201579275E0
5.078119602E0,1.143607974E0,-1.088315964E0,-2.403923988E0,2.875955733E0
5.083059540E0,1.061723948E0,-1.361552954E0,-2.354379892E0,2.919621356E0
5.087999540E0,1.183423996E0,-1.142379999E0,-2.196791887E0,2.744343093E0
5.092939233E0,1.371824980E0,-1.016808987E0,-1.931151032E0,2.577818574E0
5.097879242E0,1.423163056E0,-1.052718997E0,-1.652765036E0,2.421826302E0
5.102819242E0,1.528532982E0,-1.032837987E0,-1.443014026E0,2.342105220E0
5.107759040E0,1.674533010E0,-9.841539860E-1,-1.288318992E0,2.330747883E0
5.112699040E0,1.806787014E0,-9.068179727E-1,-1.243069053E0,2.373187481E0
5.117638963E0,1.938603997E0,-8.140000105E-1,-1.252997994E0,2.447608108E0
5.122578948E0,1.892413974E0,-7.744370103E-1,-9.229679704E-1,2.243402150E0
5.127518717E0,2.076505899E0,-6.114959717E-1,-4.980379939E-1,2.221226219E0
5.132458717E0,2.327992916E0,-3.801960051E-1,-2.775470018E-1,2.375106810E0
5.137398737E0,2.497498035E0,-1.756850034E-1,-9.802500159E-2,2.505587867E0
5.142338660E0,2.531538963E0,1.496700011E-2,9.544300288E-2,2.533381712E0
5.147278664E0,2.416857958E0,8.354499936E-2,2.209459990E-1,2.428373795E0
5.152218433E0,2.303215981E0,1.386770010E-1,4.147900045E-1,2.344373245E0
5.157158434E0,2.217832088E0,3.026779890E-1,5.817180276E-1,2.312744906E0
5.162098343E0,2.133291006E0,4.652450085E-1,7.221419811E-1,2.299754873E0
5.167038343E0,2.158541918E0,5.722360015E-1,7.814499736E-1,2.365887004E0
5.171978112E0,2.211864948E0,6.504610181E-1,8.278750181E-1,2.449657758E0
5.176918107E0,2.184530020E0,7.134860158E-1,7.933629751E-1,2.431184590E0
5.181858030E0,2.076184034E0,8.151350021E-1,6.644250154E-1,2.327325894E0
5.186798001E0,1.967983007E0,9.559959769E-1,5.905730128E-1,2.266199883E0
5.191738001E0,1.860008001E0,8.635519743E-1,4.492630064E-1,2.099330614E0
5.196677770E0,1.846979022E0,8.781560063E-1,2.948989868E-1,2.066265930E0
5.201617770E0,1.969249964E0,9.991369843E-1,2.093099952E-1,2.218114246E0
5.206557693E0,2.023338079E0,8.867710233E-1,1.651500016E-1,2.215295546E0
5.211497693E0,1.941498995E0,8.274819851E-1,9.425500035E-2,2.112588173E0
5.216437664E0,1.846542001E0,8.756150007E-1,-1.691400073E-2,2.043698871E0
5.221377434E0,1.779008031E0,8.404920101E-1,-1.684249938E-1,1.974756535E0
5.226317338E0,1.711359978E0,8.041200042E-1,-3.604260087E-1,1.924907494E0
5.231257338E0,1.684244990E0,6.985080242E-1,-5.112699866E-1,1.893671473E0
5.236197131E0,1.656592011E0,6.739150286E-1,-6.347560287E-1,1.897728583E0
5.241137131E0,1.614516973E0,6.212109923E-1,-7.853609920E-1,1.899831583E0
5.246077131E0,1.599128962E0,5.679119825E-1,-8.405429721E-1,1.893739672E0
5.251016823E0,1.583266020E0,5.549690127E-1,-9.365170002E-1,1.921402089E0
5.255956823E0,1.553475976E0,4.870940149E-1,-1.059649944E0,1.942525725E0
5.260896751E0,1.509922028E0,4.869950116E-1,-1.223569036E0,2.003534341E0
5.265836751E0,1.520459056E0,4.866490066E-1,-1.333001018E0,2.079787179E0
5.270776521E0,1.571208954E0,5.541719794E-1,-1.483342052E0,2.230719122E0
5.275716545E0,1.593587995E0,6.624339819E-1,-1.606613994E0,2.357869802E0
5.280656468E0,1.614853978E0,7.708489895E-1,-1.621173978E0,2.414573793E0
5.285596453E0,1.675927997E0,8.933820128E-1,-1.636080027E0,2.506715765E0
5.290536453E0,1.709069014E0,9.621109962E-1,-1.664937019E0,2.572661995E0
5.295476222E0,1.768964052E0,1.032109976E0,-1.653411031E0,2.632157453E0
5.300416203E0,1.787868023E0,1.117135048E0,-1.615095019E0,2.655747485E0
5.305356126E0,1.833843946E0,1.094535947E0,-1.563593984E0,2.646850714E0
5.310296126E0,1.838881969E0,1.087023973E0,-1.430825949E0,2.571064159E0
5.315235866E0,1.802739024E0,1.135629058E0,-1.298604965E0,2.495174583E0
5.320175866E0,1.725576043E0,1.185690999E0,-1.125980973E0,2.377248194E0
5.325115789E0,1.647724032E0,1.223536015E0,-9.811270237E-1,2.274784628E0
5.330055789E0,1.609884024E0,1.180809975E0,-7.958869934E-1,2.149296367E0
5.334995559E0,1.611796975E0,1.125463009E0,-5.974900126E-1,2.054641280E0
5.339935559E0,1.585677028E0,1.070449948E0,-2.767120004E-1,1.933081545E0
5.344875559E0,1.558802962E0,1.084030032E0,5.745000020E-2,1.899549496E0
5.349815482E0,1.491148949E0,1.124915957E0,3.644089997E-1,1.903090912E0
5.354755251E0,1.369099975E0,1.097916007E0,6.713629961E-1,1.878984452E0
5.359695251E0,1.261096001E0,1.138105035E0,9.923179746E-1,1.967318265E0
5.364635174E0,1.167682052E0,1.164116979E0,1.136571050E0,2.002609164E0
5.369575174E0,1.102831006E0,1.162178040E0,1.199558973E0,2.001458407E0
5.374515174E0,9.571939707E-1,1.186820984E0,1.222059965E0,1.954020190E0
5.379454866E0,8.669289947E-1,1.251309037E0,1.245022058E0,1.966575733E0
5.384394867E0,8.591520190E-1,1.342478991E0,1.241047025E0,2.020046967E0
5.389334867E0,9.614049792E-1,1.433333039E0,1.169250011E0,2.084679526E0
5.394274651E0,9.689139724E-1,1.469895959E0,1.083889961E0,2.067415262E0
5.399214651E0,9.491909742E-1,1.520118952E0,1.080255032E0,2.092528630E0
5.404154569E0,9.559329748E-1,1.598044038E0,1.117243052E0,2.171585742E0
5.409094569E0,9.614189863E-1,1.689895988E0,1.222066998E0,2.296415177E0
5.414034347E0,1.074278951E0,1.740901947E0,1.313038945E0,2.430820052E0
5.418974347E0,1.199254036E0,1.736775041E0,1.417603016E0,2.542478337E0
5.423914270E0,1.281183004E0,1.895172954E0,1.685557008E0,2.841515941E0
5.428854044E0,1.280092955E0,2.065876961E0,1.912847042E0,3.092809305E0
5.433794044E0,1.210160971E0,1.935132980E0,1.922628999E0,2.984247224E0
5.438734044E0,1.383419037E0,2.074174881E0,2.069075108E0,3.239926152E0
5.443673939E0,1.419096947E0,2.251020908E0,2.202579021E0,3.454314059E0
5.448613939E0,1.535297990E0,2.397456884E0,2.282341957E0,3.648838752E0
5.453553704E0,1.609598994E0,2.322472095E0,2.362972021E0,3.683520372E0
5.458493704E0,1.532878041E0,2.080229044E0,2.403685093E0,3.529131620E0
5.463433627E0,1.727951050E0,2.256177902E0,2.173101902E0,3.577502681E0
5.468373376E0,2.017029047E0,2.455542088E0,1.970738053E0,3.739238104E0
5.473313376E0,2.304596901E0,2.501993895E0,1.769152999E0,3.834193873E0
5.478253376E0,2.399678946E0,2.286773920E0,1.690865993E0,3.721131792E0
5.483193266E0,2.398938894E0,1.933732033E0,1.640377998E0,3.490711585E0
5.488133266E0,2.424943924E0,1.878700018E0,1.508743048E0,3.418504406E0
5.493073036E0,2.505327940E0,1.891067982E0,1.282135010E0,3.390674915E0
5.498013040E0,2.517767906E0,1.890264034E0,1.110069036E0,3.338338900E0
5.502952963E0,2.422768116E0,1.877887964E0,1.087553024E0,3.252543640E0
5.507892959E0,2.315849066E0,1.758715987E0,9.966170192E-1,3.074001350E0
5.512832728E0,2.157192945E0,1.547307014E0,8.779119849E-1,2.796134806E0
5.517772728E0,1.933415055E0,1.271752954E0,9.082270265E-1,2.486026082E0
5.522712742E0,1.699735999E0,1.000910997E0,1.019258976E0,2.220318480E0
5.527652665E0,1.414895058E0,7.341989875E-1,9.795669913E-1,1.870969713E0
5.532592434E0,8.876659870E-1,4.447630048E-1,1.047734976E0,1.443438123E0
5.537532352E0,4.303120077E-1,1.867759973E-1,1.278226972E0,1.361586533E0
5.542472352E0,1.518449932E-1,1.869999978E-4,1.494261980E0,1.501957324E0
5.547412367E0,3.824700043E-2,-2.112150043E-1,1.709692955E0,1.723114799E0
5.552352367E0,1.167839989E-1,-4.484770000E-1,1.856747031E0,1.913708353E0
5.557292060E0,2.513099909E-1,-6.851029992E-1,1.962903023E0,2.094161194E0
5.562232050E0,2.648040056E-1,-9.216600060E-1,2.082822084E0,2.292973215E0
5.567171819E0,1.435109973E-1,-1.035439968E0,2.216451883E0,2.450589783E0
5.572111819E0,1.326169968E-1,-1.108590007E0,2.363924980E0,2.614325990E0
5.577051751E0,1.369650066E-1,-1.305294991E0,2.457386017E0,2.785911065E0
5.581991751E0,4.013249874E-1,-1.013836980E0,2.674221992E0,2.887973413E0
5.586931737E0,6.828269958E-1,-9.014899731E-1,2.714981079E0,2.941098288E0
5.591871506E0,7.791439891E-1,-1.240955949E0,2.362040043E0,2.779616914E0
5.596811511E0,9.759119749E-1,-1.093574047E0,1.874516964E0,2.379521428E0
5.601751434E0,1.244837999E0,-9.359530210E-1,1.197821021E0,1.964791312E0
5.606691434E0,1.449308038E0,-9.991220236E-1,4.407500029E-1,1.814662275E0
5.611631213E0,1.818701982E0,-6.836079955E-1,-2.920500003E-2,1.943154581E0
5.616571136E0,2.244689941E0,-6.423100233E-1,-6.072070003E-1,2.412445946E0
5.621511131E0,2.535496950E0,-7.792530060E-1,-1.388896942E0,2.994163447E0
5.626451131E0,2.648551941E0,-6.591119766E-1,-2.020176888E0,3.395639945E0
5.631390900E0,2.677086115E0,-5.668140054E-1,-2.583383083E0,3.763234824E0
5.636330881E0,2.702192068E0,-5.694620013E-1,-2.929112911E0,4.025646705E0
5.641270804E0,2.736171961E0,-5.431470275E-1,-3.030757904E0,4.119118737E0
5.646210809E0,2.821157932E0,-5.419489741E-1,-2.983656883E0,4.141841277E0
5.651150578E0,2.862979889E0,-6.334530115E-1,-2.842329025E0,4.083717773E0
5.656090578E0,2.849471092E0,-6.407129765E-1,-2.620172024E0,3.923684500E0
5.661030563E0,2.753882885E0,-6.317570210E-1,-2.521459103E0,3.786917465E0
5.665970486E0,2.590640068E0,-5.792589784E-1,-2.532490015E0,3.668850311E0
5.670910486E0,2.372931957E0,-5.919860005E-1,-2.558048964E0,3.539049025E0
5.675850270E0,2.154572964E0,-6.697570086E-1,-2.571047068E0,3.420678607E0
5.680790270E0,1.934494972E0,-7.442860007E-1,-2.558080912E0,3.292417106E0
5.685729971E0,1.712507963E0,-7.746499777E-1,-2.437473059E0,3.077993019E0
5.690669971E0,1.420392036E0,-8.018249869E-1,-2.209198952E0,2.746087554E0
5.695609971E0,1.112589002E0,-8.396459818E-1,-1.941285968E0,2.389864195E0
5.700549967E0,8.566510081E-1,-8.207380176E-1,-1.579094052E0,1.975094901E0
5.705489890E0,6.940039992E-1,-7.586740255E-1,-1.217880964E0,1.593882640E0
5.710429659E0,5.434669852E-1,-7.223370075E-1,-8.164470196E-1,1.218077523E0
5.715369587E0,4.193109870E-1,-7.529820204E-1,-4.154230058E-1,9.567548801E-1
5.720309587E0,2.948710024E-1,-7.291759849E-1,-2.798499912E-2,7.870385538E-1
5.725249356E0,1.436319947E-1,-7.187960148E-1,2.641839981E-1,7.791604749E-1
5.730189356E0,3.380699828E-2,-7.500870228E-1,4.477829933E-1,8.742328431E-1
5.735129279E0,1.006710008E-1,-4.284929931E-1,6.998599768E-1,8.267677320E-1
5.740069294E0,2.361589968E-1,-2.708699927E-2,1.047973037E0,1.074593999E0
5.745009294E0,2.383009940E-1,-1.036460027E-1,1.083649993E0,1.114372992E0
5.749949063E0,3.517180085E-1,1.309420019E-1,1.011358976E0,1.078748508E0
5.754889063E0,5.347430110E-1,4.994870126E-1,8.037689924E-1,1.086959961E0
5.759828986E0,5.824760199E-1,4.436300099E-1,5.969629884E-1,9.446960934E-1
5.764769005E0,6.979529858E-1,6.585260034E-1,4.995599985E-1,1.081829497E0
5.769708775E0,8.403509855E-1,9.400179982E-1,5.523779988E-1,1.376570038E0
5.774648698E0,9.019479752E-1,8.523290157E-1,4.286899865E-1,1.312916603E0
5.779588703E0,1.072918057E0,1.089125991E0,3.057569861E-1,1.559113824E0
5.784528703E0,1.312965035E0,1.214725971E0,7.464700192E-2,1.790253765E0
5.789468472E0,1.526852012E0,1.188750029E0,-1.694110036E-1,1.942447885E0
5.794408486E0,1.687147021E0,1.175073028E0,-2.903670073E-1,2.076433165E0
5.799348409E0,1.670909047E0,1.201184988E0,-4.926460087E-1,2.116006264E0
5.804288414E0,1.600847006E0,1.240339994E0,-6.946460009E-1,2.140954811E0
5.809228183E0,1.504318953E0,1.224802017E0,-8.283450007E-1,2.109329498E0
5.814168096E0,1.490242958E0,1.182021976E0,-9.891520143E-1,2.143926709E0
5.819108096E0,1.558295012E0,1.098737955E0,-1.163593054E0,2.233709299E0
5.824048096E0,1.545397043E0,1.015890956E0,-1.229050994E0,2.220552364E0
5.828987890E0,1.396653056E0,9.199470282E-1,-1.335435987E0,2.140170920E0
5.833927890E0,1.233698010E0,8.376839757E-1,-1.455533028E0,2.083818999E0
5.838867813E0,1.191833019E0,8.370850086E-1,-1.480499029E0,2.076789501E0
5.843807587E0,1.270519972E0,8.365039825E-1,-1.492174983E0,2.130855718E0
5.848747587E0,1.456339002E0,8.221169710E-1,-1.490476966E0,2.240160974E0
5.853687587E0,1.545215964E0,7.259039879E-1,-1.434530020E0,2.229911513E0
5.858627524E0,1.674198031E0,6.297199726E-1,-1.419577956E0,2.283569107E0
5.863567293E0,1.747900963E0,5.882670283E-1,-1.445688963E0,2.343337886E0
5.868507313E0,1.725378036E0,5.744940042E-1,-1.376731992E0,2.280869068E0
5.873447236E0,1.688035011E0,5.202890038E-1,-1.199139953E0,2.134970602E0
5.878387236E0,1.690562963E0,5.210819840E-1,-1.035483956E0,2.049818673E0
5.883327016E0,1.664996028E0,5.768719912E-1,-8.585039973E-1,1.960107696E0
5.888266939E0,1.693887949E0,6.739339828E-1,-7.088840008E-1,1.956006115E0
5.893206939E0,1.736758947E0,6.899039745E-1,-6.547219753E-1,1.980141409E0
5.898146718E0,1.807206988E0,7.335399985E-1,-6.142439842E-1,2.044840752E0
5.903086718E0,1.891674995E0,8.048200011E-1,-5.601879954E-1,2.130722908E0
5.908026655E0,1.976410031E0,8.495029807E-1,-5.335059762E-1,2.216411639E0
5.912966655E0,2.101881981E0,9.081050158E-1,-4.660669863E-1,2.336617431E0
5.917906655E0,2.254379034E0,9.666370153E-1,-4.667460024E-1,2.496890822E0
5.922846419E0,2.351963043E0,1.038434029E0,-4.401539862E-1,2.608411570E0
5.927786342E0,2.326164007E0,1.150681019E0,-3.454850018E-1,2.618103451E0
5.932726342E0,2.244904995E0,1.275807023E0,-2.371580005E-1,2.592976266E0
5.937666112E0,2.258200884E0,1.440634012E0,-1.150209978E-1,2.681068335E0
5.942606112E0,2.339140892E0,1.535940051E0,-1.980599947E-2,2.798407445E0
5.947546049E0,2.420279026E0,1.561843991E0,-3.315100074E-2,2.880660724E0
5.952486126E0,2.420578957E0,1.600015044E0,-5.958300084E-2,2.902206189E0
5.957426049E0,2.408261061E0,1.664208055E0,-9.911300242E-2,2.929015734E0
5.962365799E0,2.328815937E0,1.686599970E0,-1.790670007E-1,2.880983880E0
5.967305799E0,2.195557117E0,1.735205054E0,-2.722269893E-1,2.811674798E0
5.972245722E0,2.035142899E0,1.796380997E0,-2.969680130E-1,2.730747389E0
5.977185703E0,1.997334003E0,1.788357973E0,-3.486250043E-1,2.703535973E0
5.982125472E0,1.986117005E0,1.793107033E0,-3.592860103E-1,2.699811110E0
5.987065481E0,1.920174956E0,1.810852051E0,-3.425590098E-1,2.661504027E0
5.992005404E0,1.881448030E0,1.814303041E0,-2.847700119E-1,2.629189262E0
5.996945174E0,1.883568048E0,1.817206979E0,-2.676739991E-1,2.630916032E0
6.001885155E0,1.885851026E0,1.792804003E0,-2.641350031E-1,2.615405816E0
6.006825155E0,1.860905051E0,1.768161058E0,-2.196480036E-1,2.576355252E0
6.011765078E0,1.822064996E0,1.689067960E0,-1.343429983E-1,2.488155836E0
6.016704828E0,1.728773952E0,1.623654962E0,3.268500045E-2,2.371915496E0
6.021644751E0,1.649564981E0,1.572260976E0,1.996929944E-1,2.287563441E0
6.026584761E0,1.625841022E0,1.452865005E0,2.851450145E-1,2.198973267E0
6.031524530E0,1.616858006E0,1.183591962E0,3.163479865E-1,2.028594536E0
6.036464530E0,1.649956942E0,1.472452044E0,5.521849990E-1,2.279337888E0
6.041404439E0,1.522459030E0,1.312589049E0,6.657480001E-1,2.117543839E0
6.046344439E0,1.371078968E0,1.057487011E0,6.845750213E-1,1.861928912E0
6.051284439E0,1.426571012E0,1.210507989E0,6.087139845E-1,1.967477359E0
6.056224232E0,1.497681975E0,1.050026059E0,3.290309906E-1,1.858458344E0
6.061164232E0,1.446408033E0,1.148658991E0,3.489789963E-1,1.879707428E0
6.066104150E0,1.463544011E0,1.316076040E0,4.096849859E-1,2.010437516E0
6.071044150E0,1.467494011E0,1.089607000E0,2.250130028E-1,1.841578925E0
6.075983919E0,1.402109981E0,1.312873960E0,2.716090083E-1,1.939928319E0
6.080923827E0,1.361058950E0,1.550109982E0,4.265269935E-1,2.106477558E0
6.085863827E0,1.358626008E0,1.555767059E0,5.810409784E-1,2.145666421E0
6.090803827E0,1.394238949E0,1.683917999E0,7.895259857E-1,2.324399569E0
6.095743587E0,1.399449944E0,1.825052977E0,1.038455963E0,2.523424122E0
6.100683587E0,1.360452056E0,1.937777996E0,1.287098050E0,2.694890489E0
6.105623520E0,1.250810981E0,2.144109964E0,1.549412966E0,2.926160656E0
6.110563520E0,1.193549991E0,2.361799955E0,1.812044978E0,3.207205577E0
6.115503289E0,1.325008988E0,2.563476086E0,1.966110945E0,3.491797633E0
6.120443294E0,1.250810981E0,2.626950026E0,1.998003960E0,3.529506250E0
6.125383217E0,1.133810043E0,2.660847902E0,2.125655890E0,3.589435852E0
6.130323217E0,1.191637039E0,2.733082056E0,2.362710953E0,3.804226519E0
6.135263231E0,1.248476982E0,2.571399927E0,2.491467953E0,3.791860351E0
6.140203000E0,1.128353953E0,2.162982941E0,2.743439913E0,3.671258694E0
6.145143000E0,1.171800017E0,2.078463078E0,3.078265905E0,3.894720148E0
6.150082693E0,1.312268019E0,2.032150030E0,3.046689987E0,3.890244334E0
6.155022693E0,1.277920008E0,1.847339988E0,2.853030920E0,3.631188512E0
6.159962683E0,1.137151003E0,1.743551016E0,2.741981030E0,3.442606936E0
6.164902606E0,1.134948969E0,1.802430987E0,2.536472082E0,3.312183155E0
6.169842395E0,1.230564952E0,1.753180027E0,2.222342968E0,3.086541523E0
6.174782318E0,1.246683002E0,1.460397959E0,1.935448050E0,2.726341846E0
6.179722318E0,1.332187057E0,1.320677996E0,1.879304051E0,2.655314753E0
6.184662327E0,1.514279008E0,1.306233048E0,1.781666040E0,2.678361359E0
6.189602096E0,1.643376946E0,1.240893006E0,1.601359010E0,2.608611493E0
6.194542096E0,1.596917033E0,8.793050051E-1,1.461014032E0,2.336211314E0
6.199482010E0,1.496400952E0,3.309319913E-1,1.510023952E0,2.151488816E0
6.204422010E0,1.572772026E0,-2.421559989E-1,1.626188993E0,2.275245485E0
6.209361780E0,1.730345964E0,-8.269640207E-1,1.714318991E0,2.572325067E0
6.214301804E0,1.805984020E0,-1.110005975E0,1.856104016E0,2.817590046E0
6.219241727E0,1.841091037E0,-1.117979050E0,1.983332038E0,2.927985542E0
6.224181751E0,1.823691010E0,-1.055639029E0,2.001163006E0,2.906006889E0
6.229121520E0,1.836675048E0,-1.004840016E0,1.977985978E0,2.880192219E0
6.234061447E0,1.853340983E0,-1.047868967E0,1.846042991E0,2.817938412E0
6.239001447E0,1.941337943E0,-1.021834016E0,1.591850042E0,2.710521043E0
6.243941447E0,1.950775027E0,-1.062983990E0,1.201815009E0,2.525830059E0
6.248881216E0,1.880522013E0,-1.144144058E0,9.481490254E-1,2.396750976E0
6.253821216E0,1.797526956E0,-1.225183010E0,6.947010159E-1,2.283590608E0
6.258761139E0,1.890020013E0,-1.347684979E0,4.139780104E-1,2.357924563E0
6.263701120E0,2.034487009E0,-1.458353996E0,2.832820117E-1,2.519163049E0
6.268640890E0,2.271004915E0,-1.530992031E0,1.666229963E-1,2.743932060E0
6.273580813E0,2.476644993E0,-1.470780969E0,1.594530046E-1,2.884855688E0
6.278520813E0,2.583877087E0,-1.332288980E0,-2.409699932E-2,2.907231568E0
6.283460813E0,2.429631948E0,-1.196593046E0,-2.752310038E-1,2.722259802E0
6.288400813E0,2.191771030E0,-9.131640196E-1,-3.761129975E-1,2.403994543E0
6.293340592E0,2.007458925E0,-6.858040094E-1,-5.037770271E-1,2.180369182E0
6.298280592E0,1.905064940E0,-5.685399771E-1,-7.126150131E-1,2.111949405E0
6.303220279E0,1.707440972E0,-4.789969921E-1,-8.803179860E-1,1.979836496E0
6.308160279E0,1.592458963E0,-3.353070021E-1,-1.129333973E0,1.980846172E0
6.313100279E0,1.574005008E0,-3.410390019E-1,-1.432654023E0,2.155527062E0
6.318040179E0,1.556422949E0,-2.779259980E-1,-1.736011028E0,2.348069323E0
6.322980179E0,1.552585006E0,-2.263640016E-1,-1.863070011E0,2.435732072E0
6.327919866E0,1.536010981E0,-4.176520109E-1,-2.072549105E0,2.613278157E0
6.332859866E0,1.533283949E0,-5.791440010E-1,-2.310236931E0,2.832589296E0
6.337799866E0,1.529860020E0,-6.834070086E-1,-2.385763884E0,2.915370667E0
6.342739625E0,1.539113045E0,-8.118010163E-1,-2.476422071E0,3.026641064E0
6.347679548E0,1.561714053E0,-9.644320011E-1,-2.527530909E0,3.123698507E0
6.352619548E0,1.543154001E0,-1.168277979E0,-2.593693018E0,3.236269639E0
6.357559332E0,1.714916945E0,-1.355355978E0,-2.756599903E0,3.518063811E0
6.362499332E0,1.804139972E0,-1.430153012E0,-2.812127113E0,3.634324914E0
6.367439251E0,1.660565972E0,-1.446889997E0,-2.760483980E0,3.531464543E0
6.372379251E0,1.679070950E0,-1.487411022E0,-2.778702974E0,3.571114815E0
6.377319020E0,1.750089049E0,-1.524628043E0,-2.771508932E0,3.615046903E0
6.382259029E0,1.763304949E0,-1.423262000E0,-2.629875898E0,3.471478979E0
6.387198952E0,1.827247024E0,-1.319725990E0,-2.340186119E0,3.249150573E0
6.392138952E0,1.915081978E0,-1.350782990E0,-1.888463020E0,3.009725278E0
6.397078726E0,1.986276984E0,-1.394006968E0,-1.506085038E0,2.856018877E0
6.402018726E0,2.096025944E0,-1.355290055E0,-1.165114999E0,2.754565093E0
6.406958726E0,2.231319904E0,-1.261616945E0,-7.837730050E-1,2.680441373E0
6.411898649E0,2.379333019E0,-1.167497039E0,-5.116659999E-1,2.699273430E0
6.416838649E0,2.499896049E0,-1.004794002E0,-2.532919943E-1,2.706150047E0
6.421778387E0,2.648655891E0,-7.880629897E-1,-6.249099970E-2,2.764114041E0
6.426718310E0,2.758102894E0,-5.980880260E-1,1.013619974E-1,2.824024631E0
6.431658310E0,2.801400900E0,-3.804470003E-1,1.566659957E-1,2.831453894E0
6.436598064E0,2.846407890E0,1.076000044E-3,2.395530045E-1,2.856470668E0
6.441538064E0,2.798540115E0,4.187899828E-2,2.142319977E-1,2.807040430E0
6.446478078E0,2.724553108E0,1.100739986E-1,1.892129928E-1,2.733332669E0
6.451418001E0,2.745826960E0,3.547770083E-1,2.734430134E-1,2.782122122E0
6.456357770E0,2.739942074E0,5.039529800E-1,3.987160027E-1,2.814289542E0
6.461297770E0,2.775773048E0,5.294409990E-1,4.838080108E-1,2.866931108E0
6.466237693E0,2.758119106E0,5.952519774E-1,4.468170106E-1,2.856779894E0
6.471177693E0,2.741301060E0,7.145640254E-1,3.150959909E-1,2.850371683E0
6.476117459E0,2.752283096E0,8.057469726E-1,2.383629978E-1,2.877691322E0
6.481057382E0,2.695584059E0,8.818339705E-1,1.895399988E-1,2.842486584E0
6.485997141E0,2.611802101E0,9.029650092E-1,8.649300039E-2,2.764839428E0
6.490937141E0,2.527426958E0,9.233080149E-1,3.811699897E-2,2.691066262E0
6.495877064E0,2.496655941E0,9.836030006E-1,9.886900336E-2,2.685245022E0
6.500817053E0,2.438360929E0,9.605579972E-1,1.329060048E-1,2.624107409E0
6.505756822E0,2.407514095E0,9.502559900E-1,1.128399968E-1,2.590722569E0
6.510696822E0,2.404418945E0,8.982089758E-1,9.321799874E-2,2.568404062E0
6.515636841E0,2.292885065E0,8.317260146E-1,6.039199978E-2,2.439823206E0
6.520576764E0,2.182157993E0,7.775220275E-1,4.182900116E-2,2.316916847E0
6.525516784E0,2.044655085E0,5.998420119E-1,-8.527699858E-2,2.132533006E0
6.530456554E0,2.002302885E0,6.251279712E-1,-2.119739950E-1,2.108301401E0
6.535396549E0,1.959723949E0,6.492930055E-1,-2.157559991E-1,2.075728792E0
6.540336472E0,1.876371980E0,5.361509919E-1,-2.872540057E-1,1.972497036E0
6.545276241E0,1.806661963E0,5.308750272E-1,-4.264859855E-1,1.930737175E0
6.550216255E0,1.750445008E0,5.922880173E-1,-5.652859807E-1,1.932462435E0
6.555156178E0,1.625810027E0,6.117659807E-1,-7.310469747E-1,1.884660590E0
6.560096178E0,1.541622043E0,6.845970154E-1,-8.965319991E-1,1.910246377E0
6.565035923E0,1.538236976E0,7.429100275E-1,-1.048311949E0,2.004257030E0
6.569975923E0,1.601624012E0,8.550090194E-1,-1.172912002E0,2.161472290E0
6.574915846E0,1.595610023E0,9.121299982E-1,-1.284013033E0,2.242017383E0
6.579855827E0,1.643149972E0,9.825729728E-1,-1.340731025E0,2.337295693E0
6.584795827E0,1.703477979E0,1.053362012E0,-1.438591957E0,2.465959361E0
6.589735597E0,1.708626986E0,1.056795001E0,-1.618551970E0,2.579909364E0
6.594675587E0,1.644691944E0,1.074916959E0,-1.730944991E0,2.618516493E0
6.599615510E0,1.579653978E0,1.053758979E0,-1.694231033E0,2.544824841E0
6.604555491E0,1.554033995E0,1.075044990E0,-1.631054997E0,2.496213891E0
6.609495183E0,1.513291001E0,1.029925942E0,-1.514215946E0,2.375636132E0
6.614435164E0,1.512063026E0,1.000319004E0,-1.221145988E0,2.185902612E0
6.619375164E0,1.496598959E0,1.039993048E0,-8.876609802E-1,2.027149723E0
6.624314933E0,1.521350026E0,1.026190996E0,-5.545679927E-1,1.917060125E0
6.629254947E0,1.545729041E0,1.053841949E0,-2.216760069E-1,1.883879341E0
6.634194640E0,1.542642951E0,1.041028023E0,4.300500080E-2,1.861541310E0
6.639134631E0,1.457793951E0,1.041525006E0,2.124879956E-1,1.804186435E0
6.644074554E0,1.331611037E0,1.096739054E0,4.635890126E-1,1.786320038E0
6.649014554E0,1.368989944E0,1.111147046E0,6.738970280E-1,1.887569450E0
6.653954525E0,1.311632037E0,1.084875941E0,8.298450112E-1,1.893667645E0
6.658894294E0,1.254798055E0,1.072605014E0,1.081179976E0,1.973309356E0
6.663834294E0,1.186354041E0,1.142205954E0,1.264803052E0,2.076486723E0
6.668774217E0,1.119974017E0,1.253483057E0,1.353281021E0,2.157992376E0
6.673714217E0,1.164670944E0,1.338322997E0,1.387482047E0,2.252259595E0
6.678653986E0,1.156412959E0,1.383460999E0,1.380813956E0,2.271101594E0
6.683593990E0,1.149273992E0,1.401770949E0,1.374279022E0,2.274738520E0
6.688533914E0,1.196367979E0,1.447986960E0,1.449280024E0,2.372419686E0
6.693473683E0,1.228579998E0,1.589588046E0,1.687533975E0,2.623732053E0
6.698413683E0,1.409122944E0,1.730890036E0,1.871175051E0,2.912542507E0
6.703353606E0,1.588186026E0,1.843430042E0,2.055026054E0,3.184917779E0
6.708293622E0,1.683406949E0,2.049595118E0,2.279886007E0,3.497510444E0
6.713233391E0,1.681707025E0,2.076472044E0,2.341681957E0,3.552935273E0
6.718173391E0,1.608927965E0,2.059504986E0,2.390201092E0,3.541648097E0
6.723113285E0,1.832427025E0,2.310866117E0,2.657223940E0,3.969726701E0
6.728053285E0,2.121798038E0,2.531572104E0,2.870369911E0,4.376060747E0
6.732993054E0,2.287806034E0,2.612729073E0,2.948151112E0,4.555436821E0
6.737933060E0,2.262588978E0,2.649599075E0,3.026834965E0,4.615345496E0
6.742873060E0,2.360842943E0,2.614547014E0,2.929701090E0,4.581766468E0
6.747812978E0,2.391179085E0,2.534776926E0,2.806473017E0,4.474273379E0
6.752752978E0,2.448942900E0,2.288077116E0,2.629822969E0,4.260115851E0
6.757692747E0,2.424225092E0,1.888398051E0,2.372292042E0,3.882097890E0
6.762632670E0,2.466058016E0,1.948794007E0,2.238051891E0,3.858512212E0
6.767572670E0,2.519769907E0,2.156850100E0,2.172389984E0,3.964911220E0
6.772512439E0,2.492465019E0,2.051175117E0,2.039001942E0,3.818013902E0
6.777452443E0,2.494371891E0,1.999881029E0,1.878818989E0,3.708284786E0
6.782392366E0,2.486562014E0,1.950222969E0,1.664353013E0,3.571614653E0
6.787332146E0,2.427822113E0,1.780375004E0,1.340813994E0,3.295730197E0
6.792272069E0,2.208913088E0,1.532173991E0,1.071287990E0,2.893874933E0
6.797212069E0,1.910354018E0,1.247210026E0,8.553689718E-1,2.436522399E0
6.802151833E0,1.504227042E0,8.995749950E-1,8.832299709E-1,1.962658745E0
6.807091833E0,1.139471054E0,5.020470023E-1,1.168609023E0,1.707657028E0
6.812031756E0,1.020545006E0,2.585299909E-1,1.520954967E0,1.849771304E0
6.816971544E0,9.848260283E-1,3.201099858E-2,1.790784001E0,2.043970242E0
6.821911544E0,9.925479889E-1,-1.919820011E-1,2.005733967E0,2.246102701E0
6.826851496E0,1.030478954E0,-4.006470144E-1,2.125231981E0,2.395624319E0
6.831791496E0,9.486879706E-1,-7.170339823E-1,2.299226046E0,2.588549209E0
6.836731496E0,6.923099756E-1,-1.291712046E0,2.323581934E0,2.747152365E0
6.841671252E0,5.461379886E-1,-1.145354986E0,2.688863039E0,2.973228748E0
6.846611252E0,4.845699966E-1,-1.190238953E0,2.918486118E0,3.188892922E0
6.851551175E0,4.681699872E-1,-1.495231986E0,2.808552980E0,3.216033531E0
6.856491175E0,5.776649714E-1,-1.162446022E0,2.686135054E0,2.983336907E0
6.861430944E0,8.945000172E-1,-7.645779848E-1,2.374322891E0,2.649928106E0
6.866370944E0,1.242329955E0,-7.917739749E-1,1.954898953E0,2.447839795E0
6.871310867E0,1.607010007E0,-8.761770129E-1,1.400545001E0,2.304711179E0
6.876250867E0,1.933449984E0,-8.131089807E-1,8.064410090E-1,2.247158685E0
6.881190626E0,2.110861063E0,-8.882200122E-1,2.812030017E-1,2.307324066E0
6.886130549E0,2.302500963E0,-9.919210076E-1,-2.570840120E-1,2.520220260E0
6.891070549E0,2.397748947E0,-1.028504014E0,-6.861850023E-1,2.697752839E0
6.896010295E0,2.491132021E0,-1.038755059E0,-1.006252050E0,2.880502388E0
6.900950295E0,2.540662050E0,-1.035799026E0,-1.244856000E0,3.012890595E0
6.905890232E0,2.588116884E0,-9.926369786E-1,-1.374564052E0,3.094043230E0
6.910830232E0,2.647836924E0,-9.767789841E-1,-1.626991034E0,3.257642918E0
6.915770001E0,2.652235985E0,-9.741309881E-1,-1.920482039E0,3.416363295E0
6.920709981E0,2.668860912E0,-9.567260146E-1,-2.160006046E0,3.564234750E0
6.925649904E0,2.561810017E0,-8.971620202E-1,-2.277472973E0,3.543254633E0
6.930589904E0,2.453859091E0,-8.358389735E-1,-2.381963968E0,3.520483429E0
6.935529688E0,2.372858047E0,-7.861310244E-1,-2.487075090E0,3.526187716E0
6.940469611E0,2.264235020E0,-7.748420238E-1,-2.592962980E0,3.528540407E0
6.945409601E0,2.155493021E0,-7.881000042E-1,-2.686039925E0,3.532996215E0
6.950349371E0,1.964336038E0,-8.392879963E-1,-2.711994886E0,3.452236474E0
6.955289371E0,1.731577039E0,-8.874179721E-1,-2.670877934E0,3.304460415E0
6.960229400E0,1.497207999E0,-9.325060248E-1,-2.562832117E0,3.111158585E0
6.965169092E0,1.233986974E0,-9.880579710E-1,-2.278925896E0,2.773533062E0
6.970109092E0,1.010151029E0,-9.589359760E-1,-1.941650033E0,2.389553966E0
6.975049000E0,9.486799836E-1,-8.862050176E-1,-1.578099012E0,2.043465081E0
6.979989000E0,9.275900126E-1,-8.389469981E-1,-1.174247026E0,1.715549876E0
6.984928779E0,7.841550112E-1,-7.897719741E-1,-8.253369927E-1,1.385575694E0
6.989868779E0,5.596150160E-1,-8.755699992E-1,-6.672949791E-1,1.234939018E0
6.994808702E0,4.164530039E-1,-8.382689953E-1,-5.230150223E-1,1.072227927E0
6.999748501E0,4.765309989E-1,-3.247730136E-1,4.351399839E-2,5.783189184E-1
7.004688501E0,4.155429900E-1,-5.055040121E-1,2.425220013E-1,6.978733437E-1
7.009628424E0,4.779430032E-1,-4.559240043E-1,2.513999939E-1,7.067518440E-1
7.014568424E0,7.031750083E-1,2.771300077E-2,3.696820140E-1,7.949137652E-1
7.019508193E0,7.373960018E-1,1.684640050E-1,5.294619799E-1,9.232892139E-1
7.024448193E0,7.176970243E-1,1.577460021E-1,5.672490001E-1,9.283018087E-1
7.029388116E0,8.479220271E-1,3.083330095E-1,5.375609994E-1,1.050244180E0
7.034328106E0,9.916560054E-1,4.701189995E-1,4.949069917E-1,1.203879744E0
7.039268106E0,1.080991983E0,6.019150019E-1,5.075010061E-1,1.337311710E0
7.044207875E0,1.198680043E0,5.955659747E-1,3.982490003E-1,1.396472321E0
7.049147904E0,1.317638993E0,6.826019883E-1,1.944279969E-1,1.496636308E0
7.054087828E0,1.437489986E0,8.498520255E-1,-3.605100140E-2,1.670307038E0
7.059027828E0,1.462424994E0,8.797609806E-1,-3.478589952E-1,1.741743990E0
7.063967597E0,1.460222960E0,8.815450072E-1,-5.640559793E-1,1.796533284E0
7.068907597E0,1.457430005E0,8.963260055E-1,-7.257080078E-1,1.858535617E0
7.073847525E0,1.494845986E0,9.519140124E-1,-8.874599934E-1,1.981991435E0
7.078787294E0,1.558840990E0,1.021098018E0,-8.995000124E-1,2.069233352E0
7.083727294E0,1.622542024E0,1.063187957E0,-1.061450958E0,2.211264206E0
7.088667231E0,1.699355960E0,1.064954042E0,-1.169152975E0,2.321391064E0
7.093607001E0,1.748721004E0,1.053774953E0,-1.168102026E0,2.352217920E0
7.098546924E0,1.702548981E0,1.002439022E0,-1.153646946E0,2.287893857E0
7.103486943E0,1.710265040E0,9.923279881E-1,-1.057675004E0,2.242408919E0
7.108426712E0,1.786484003E0,9.822130203E-1,-8.935120106E-1,2.225900093E0
7.113366953E0,1.836107969E0,9.581990242E-1,-8.653399944E-1,2.244604899E0
7.118306645E0,1.791105986E0,8.112350106E-1,-9.594990015E-1,2.187875963E0
7.123246645E0,1.677438021E0,6.772300005E-1,-1.026350975E0,2.079864205E0
7.128186434E0,1.671895027E0,6.243510246E-1,-1.011487007E0,2.051378354E0
7.133126434E0,1.733247995E0,6.119520068E-1,-1.010388017E0,2.097502757E0
7.138066357E0,1.820359945E0,5.720540285E-1,-9.686620235E-1,2.139921087E0
7.143006342E0,1.878924966E0,5.593360066E-1,-8.999469876E-1,2.157109264E0
7.147946112E0,1.895887971E0,5.330740213E-1,-8.041650057E-1,2.127261260E0
7.152886035E0,1.898532987E0,5.753160119E-1,-7.086309791E-1,2.106554979E0
7.157826035E0,1.900444984E0,6.588029861E-1,-5.997279882E-1,2.098901182E0
7.162765804E0,1.942796946E0,6.745719910E-1,-4.773930013E-1,2.111258255E0
7.167705799E0,2.025899887E0,7.725539804E-1,-3.824470043E-1,2.201675661E0
7.172645722E0,2.054606915E0,8.845450282E-1,-2.603429854E-1,2.252023079E0
7.177585722E0,1.974527001E0,9.422940016E-1,-1.655029953E-1,2.194098017E0
7.182525732E0,1.962478995E0,1.040559053E0,-1.386889964E-1,2.225605892E0
7.187465501E0,1.950224996E0,1.111073971E0,-9.816499799E-2,2.246664031E0
7.192405501E0,1.965265989E0,1.139917970E0,-1.119019985E-1,2.274687988E0
7.197345410E0,1.966948032E0,1.113348961E0,-1.934439987E-1,2.268446837E0
7.202285410E0,1.954911947E0,1.235388041E0,-3.291760087E-1,2.335855556E0
7.207225165E0,1.888527036E0,1.397523046E0,-3.557159901E-1,2.376160536E0
7.212165165E0,1.795608997E0,1.231955051E0,-4.636200070E-1,2.226402576E0
7.217105088E0,1.756932020E0,1.405485988E0,-5.984489918E-1,2.328162834E0
7.222045088E0,1.717242956E0,1.523355007E0,-8.421469927E-1,2.445147318E0
7.226984857E0,1.662292004E0,1.558627009E0,-8.816549778E-1,2.443327313E0
7.231924780E0,1.646535993E0,1.593243957E0,-8.532389998E-1,2.444897517E0
7.236864780E0,1.670138001E0,1.640974998E0,-9.203439951E-1,2.515788735E0
7.241804549E0,1.678545952E0,1.743031979E0,-8.923900127E-1,2.579154304E0
7.246744482E0,1.698874950E0,1.803956032E0,-7.693700194E-1,2.594679882E0
7.251684252E0,1.717818975E0,1.824066997E0,-5.921570063E-1,2.574640239E0
7.256624252E0,1.803779006E0,1.912119031E0,-4.151160121E-1,2.661228888E0
7.261564160E0,1.821607947E0,2.027479887E0,-2.244630009E-1,2.734833422E0
7.266504160E0,1.867607951E0,1.993335962E0,-1.426510066E-1,2.735269096E0
7.271443929E0,1.846902013E0,1.905007958E0,-6.061999872E-2,2.654011520E0
7.276383876E0,1.745496035E0,1.912467003E0,1.440919936E-1,2.593269933E0
7.281323876E0,1.659394026E0,1.947911978E0,3.353359997E-1,2.580775046E0
7.286263616E0,1.589040041E0,1.915724993E0,4.724099934E-1,2.533420948E0
7.291203616E0,1.575433969E0,1.843019962E0,5.689929724E-1,2.490475412E0
7.296143616E0,1.523391008E0,1.797760010E0,6.387760043E-1,2.441453666E0
7.301083520E0,1.378237009E0,1.711794019E0,6.272529960E-1,2.285437012E0
7.306023290E0,1.289459944E0,1.612012982E0,5.889359713E-1,2.146657490E0
7.310963290E0,1.296818018E0,1.348423004E0,4.555450082E-1,1.925487685E0
7.315903228E0,1.358049989E0,1.574502945E0,5.810059905E-1,2.158918075E0
7.320843228E0,1.446310043E0,1.664080977E0,7.337520123E-1,2.323654505E0
7.325782968E0,1.535212040E0,1.521718025E0,7.777879834E-1,2.297271404E0
7.330722968E0,1.624394059E0,1.542376041E0,7.539060116E-1,2.363462330E0
7.335662891E0,1.644860983E0,1.685201049E0,7.572640181E-1,2.473644886E0
7.340602886E0,1.568462968E0,1.719010949E0,8.420490026E-1,2.474696193E0
7.345542655E0,1.517400980E0,1.780029058E0,1.035411954E0,2.557945875E0
7.350482579E0,1.546038032E0,1.909100056E0,1.241991043E0,2.752714727E0
7.355422608E0,1.545930028E0,2.078809023E0,1.475558996E0,2.981379036E0
7.360362377E0,1.421707034E0,2.275389910E0,1.695296049E0,3.173748387E0
7.365302377E0,1.268949986E0,2.498213053E0,1.874184012E0,3.371033704E0
7.370242300E0,1.237807035E0,2.597074032E0,2.039645910E0,3.526629442E0
7.375182300E0,1.328210950E0,2.707741976E0,2.082833052E0,3.665270039E0
7.380122074E0,1.281141996E0,2.912053108E0,2.194359064E0,3.864788458E0
7.385061997E0,1.260601044E0,2.978142023E0,2.224617004E0,3.925221741E0
7.390001997E0,1.252825975E0,2.947021961E0,2.119064093E0,3.839914582E0
7.394941997E0,1.351778030E0,3.117650032E0,2.245378017E0,4.072931132E0
7.399881690E0,1.367405057E0,3.000310898E0,2.358366966E0,4.053832362E0
7.404821703E0,1.477584958E0,2.798686028E0,2.363058090E0,3.949676484E0
7.409761472E0,1.423534989E0,2.580748081E0,2.545546055E0,3.894421297E0
7.414701472E0,1.355154037E0,2.590735912E0,2.742705107E0,4.008838527E0
7.419641467E0,1.396906018E0,2.556945086E0,2.682337046E0,3.960334155E0
7.424581159E0,1.426874042E0,2.479456902E0,2.432679892E0,3.755210715E0
7.429521159E0,1.418630958E0,2.427398920E0,2.143424988E0,3.535399552E0
7.434461087E0,1.372360945E0,2.278667927E0,1.732756972E0,3.174610025E0
7.439401087E0,1.342569947E0,1.899281979E0,1.308936000E0,2.668909805E0
7.444340851E0,1.369166017E0,1.521129012E0,8.580290079E-1,2.219158136E0
7.449280852E0,1.519582987E0,1.268090963E0,5.292770267E-1,2.048736517E0
7.454220771E0,1.603019953E0,9.506149888E-1,3.903470039E-1,1.904130408E0
7.459160540E0,1.279062986E0,5.432720184E-1,3.043960035E-1,1.422604490E0
7.464100540E0,8.197439909E-1,-9.136999957E-3,4.486100078E-1,9.345130467E-1
7.469040472E0,1.069025040E0,-2.565800026E-2,5.640879869E-1,1.208994676E0
7.473980472E0,1.250933051E0,-3.237589896E-1,9.097499847E-1,1.580284283E0
7.478920241E0,9.854590297E-1,-1.066719055E0,1.267871976E0,1.927827375E0
7.483860218E0,7.232969999E-1,-1.574638963E0,1.502882004E0,2.293752543E0
7.488800141E0,5.738149881E-1,-1.861896038E0,1.533408999E0,2.479367592E0
7.493740183E0,8.089169860E-1,-1.670307040E0,1.182510972E0,2.200591852E0
7.498679953E0,1.290971994E0,-8.639129996E-1,1.035665989E0,1.866965024E0
7.503619953E0,1.543629050E0,-6.956250072E-1,1.011188984E0,1.972102420E0
7.508559982E0,1.582093954E0,-9.068430066E-1,8.915740252E-1,2.029849689E0
7.513499905E0,1.582890987E0,-9.128270149E-1,5.953429937E-1,1.921777905E0
7.518439674E0,1.572185040E0,-9.047470093E-1,2.586590052E-1,1.832276570E0
7.523379669E0,1.669620037E0,-1.033053994E0,-2.355399914E-2,1.963513793E0
7.528319592E0,1.792657018E0,-1.202463031E0,-2.378540039E-1,2.171660897E0
7.533259361E0,1.803526998E0,-1.495154977E0,-3.299770057E-1,2.365815475E0
7.538199375E0,1.633314013E0,-1.748599052E0,-2.044840008E-1,2.401484337E0
7.543139298E0,1.648838997E0,-1.733010054E0,9.811700135E-2,2.394080372E0
7.548079293E0,1.757325053E0,-1.584213972E0,3.346300125E-2,2.366230129E0
7.553019063E0,1.578439951E0,-1.519472957E0,-2.486120015E-1,2.205012171E0
7.557958986E0,1.288326025E0,-1.293231010E0,-3.670949936E-1,1.861985265E0
7.562898977E0,1.214756012E0,-1.054731011E0,-4.309439957E-1,1.665473627E0
7.567838746E0,1.276080966E0,-9.396290183E-1,-5.220530033E-1,1.668479746E0
7.572778746E0,1.281301975E0,-7.702500224E-1,-5.726069808E-1,1.600905557E0
7.577718654E0,1.245072007E0,-6.008809805E-1,-6.369090080E-1,1.522141695E0
7.582658423E0,1.277482033E0,-5.670940280E-1,-7.149069905E-1,1.569919739E0
7.587598404E0,1.311488032E0,-6.412640214E-1,-8.882039785E-1,1.708837825E0
7.592538404E0,1.265656948E0,-6.867840290E-1,-1.170485973E0,1.855693193E0
7.597478327E0,1.220818996E0,-7.716240287E-1,-1.453052044E0,2.048697856E0
7.602418102E0,1.162183046E0,-8.818429708E-1,-1.722684979E0,2.257423309E0
7.607358102E0,1.143398046E0,-1.003926992E0,-1.856971979E0,2.400744349E0
7.612298025E0,1.081882000E0,-1.042301059E0,-1.965175033E0,2.473615384E0
7.617237784E0,1.086464047E0,-1.105896950E0,-2.115442038E0,2.622690833E0
7.622177784E0,1.088273048E0,-1.262989998E0,-2.226181030E0,2.781252226E0
7.627117707E0,1.113898993E0,-1.173149943E0,-2.147701025E0,2.688804836E0
7.632057707E0,1.150035024E0,-9.860370159E-1,-2.043416977E0,2.543698586E0
7.636997476E0,1.129034042E0,-1.109825015E0,-2.063178062E0,2.600602459E0
7.641937471E0,1.281800985E0,-9.189890027E-1,-1.798161983E0,2.391848882E0
7.646877394E0,1.567845941E0,-7.402989864E-1,-1.452607036E0,2.261913058E0
7.651817394E0,1.743391991E0,-7.237740159E-1,-1.080562949E0,2.175058791E0
7.656757174E0,1.891144037E0,-6.651539803E-1,-7.498660088E-1,2.140363198E0
7.661697174E0,2.025973082E0,-5.650489926E-1,-5.417230129E-1,2.171937180E0
7.666637073E0,2.066029072E0,-5.188869834E-1,-4.288940132E-1,2.172940382E0
7.671577073E0,2.174638987E0,-4.317780137E-1,-4.112589955E-1,2.254910405E0
7.676516842E0,2.351281881E0,-3.172320127E-1,-4.072510004E-1,2.407283949E0
7.681456842E0,2.514431000E0,-2.439090014E-1,-3.757840097E-1,2.554029850E0
7.686396534E0,2.677311897E0,6.601999979E-3,-2.490060031E-1,2.688874592E0
7.691336534E0,2.813364983E0,-5.609099939E-2,-3.127669990E-1,2.831252712E0
7.696276529E0,2.989607096E0,4.444500059E-2,-3.084419966E-1,3.005804786E0
7.701216452E0,3.165268898E0,3.620789945E-1,-1.540890038E-1,3.189635060E0
7.706156429E0,3.231868982E0,4.616949856E-1,-1.086229980E-1,3.266487155E0
7.711096121E0,3.230576038E0,5.340480208E-1,4.592699930E-2,3.274742451E0
7.716036121E0,3.189063072E0,6.741669774E-1,2.007890046E-1,3.265722067E0
7.720975861E0,3.108279943E0,7.995569706E-1,2.610589862E-1,3.220069464E0
7.725916092E0,3.042773962E0,9.108229876E-1,2.537919879E-1,3.186296011E0
7.730855784E0,2.979173899E0,9.941130280E-1,1.927209944E-1,3.146566258E0
7.735795798E0,2.876332045E0,1.090613961E0,2.547419965E-1,3.086684034E0
7.740735567E0,2.775629044E0,1.131870031E0,3.038609922E-1,3.012901900E0
7.745675572E0,2.663255930E0,1.172548056E0,2.718699872E-1,2.922621149E0
7.750615496E0,2.634156942E0,1.157907009E0,1.587589979E-1,2.881793861E0
7.755555496E0,2.606308937E0,1.156219006E0,1.550939977E-1,2.855475934E0
7.760495276E0,2.456846952E0,1.058068037E0,1.655990034E-1,2.680117152E0
7.765435199E0,2.444097996E0,1.026878953E0,8.121900260E-2,2.652299365E0
7.770375184E0,2.376941919E0,1.021744967E0,-4.364699870E-2,2.587609075E0
7.775314953E0,2.173312902E0,9.340069890E-1,-7.296399772E-2,2.366639341E0
7.780254953E0,2.010090113E0,8.860599995E-1,-6.120000035E-2,2.197569117E0
7.785194886E0,1.955456018E0,9.326379895E-1,-9.013299644E-2,2.168350944E0
7.790134886E0,1.900346041E0,9.646149874E-1,-1.324989945E-1,2.135264183E0
7.795074655E0,1.844576955E0,9.546669722E-1,-1.338350028E-1,2.081289259E0
7.800014645E0,1.828868985E0,9.158689976E-1,-1.893530041E-1,2.054125689E0
7.804954569E0,1.853350043E0,9.573559761E-1,-2.582179904E-1,2.101930869E0
7.809894333E0,1.809131980E0,1.010936022E0,-2.995260060E-1,2.093959405E0
7.814834333E0,1.723783016E0,1.035907984E0,-3.404960036E-1,2.039723208E0
7.819774256E0,1.638538957E0,1.032402992E0,-3.810819983E-1,1.973800735E0
7.824714266E0,1.526286006E0,1.068652034E0,-5.438809991E-1,1.940972097E0
7.829654035E0,1.468783975E0,1.076941967E0,-6.927899718E-1,1.948611893E0
7.834594035E0,1.356655002E0,1.043789983E0,-7.598339915E-1,1.872794174E0
7.839533718E0,1.271847010E0,1.010344982E0,-8.948739767E-1,1.854505657E0
7.844473948E0,1.228010058E0,1.031146049E0,-1.002573967E0,1.891143950E0
7.849413718E0,1.252526999E0,1.052196980E0,-1.151152015E0,2.000273313E0
7.854353718E0,1.304394007E0,1.087347031E0,-1.313462973E0,2.146847053E0
7.859293641E0,1.329210043E0,1.136947036E0,-1.475973964E0,2.288656165E0
7.864233391E0,1.367324948E0,1.214599967E0,-1.557065964E0,2.401933598E0
7.869173314E0,1.432173967E0,1.265982032E0,-1.570444942E0,2.473889669E0
7.874113314E0,1.428130031E0,1.359258056E0,-1.584290981E0,2.529252016E0
7.879053348E0,1.423360944E0,1.358279943E0,-1.612226009E0,2.543649639E0
7.883993040E0,1.431414008E0,1.358281970E0,-1.545269966E0,2.506339012E0
7.888933040E0,1.493231058E0,1.400156021E0,-1.410653949E0,2.485984803E0
7.893872805E0,1.486235976E0,1.470432997E0,-1.235659957E0,2.428564618E0
7.898812805E0,1.478665948E0,1.459957957E0,-9.793400168E-1,2.297180248E0
7.903752728E0,1.375774980E0,1.423187971E0,-7.096670270E-1,2.102819080E0
7.908692733E0,1.232146978E0,1.400879025E0,-4.810670018E-1,1.926674254E0
7.913632502E0,1.047803998E0,1.365614057E0,-2.390020043E-1,1.737790818E0
7.918572425E0,8.495780230E-1,1.290228963E0,9.814400226E-2,1.547935993E0
7.923512444E0,7.334480286E-1,1.256021023E0,3.944239914E-1,1.507018615E0
7.928452213E0,6.864640117E-1,1.249102950E0,5.955659747E-1,1.544729701E0
7.933392213E0,7.089560032E-1,1.269374013E0,7.016620040E-1,1.614391082E0
7.938332155E0,7.463880181E-1,1.289652944E0,7.671629786E-1,1.675959076E0
7.943272155E0,7.166799903E-1,1.296161056E0,7.920410037E-1,1.679581091E0
7.948212136E0,7.143930197E-1,1.316179991E0,8.306120038E-1,1.712484585E0
7.953151906E0,7.252659798E-1,1.336359024E0,9.099130034E-1,1.771950297E0
7.958091829E0,7.081159949E-1,1.370133996E0,1.098037958E0,1.893246626E0
7.963031810E0,7.038369775E-1,1.444411039E0,1.272505045E0,2.049628950E0
7.967971579E0,8.075910211E-1,1.518021941E0,1.419746995E0,2.229859951E0
7.972911502E0,1.005712986E0,1.794628978E0,1.621659994E0,2.619529140E0
7.977851491E0,1.162747025E0,1.783934951E0,1.674072981E0,2.708675857E0
7.982791260E0,1.237347007E0,1.907691002E0,1.672369957E0,2.822611175E0
7.987731270E0,1.310138941E0,2.151985884E0,1.752627015E0,3.069072945E0
7.992670963E0,1.462852001E0,2.190186977E0,1.860299945E0,3.224526455E0
7.997611193E0,1.600281954E0,2.226289034E0,1.981889009E0,3.383068022E0
8.002550953E0,1.681581020E0,2.328377008E0,2.131030083E0,3.576358963E0
8.007490876E0,1.775269985E0,2.455667019E0,2.253310919E0,3.776148054E0
8.012430876E0,1.909463048E0,2.471930981E0,2.308051109E0,3.883760012E0
8.017370577E0,2.152458906E0,2.595241070E0,2.308871031E0,4.086470481E0
8.022310577E0,2.287427902E0,2.403992891E0,2.037873030E0,3.894153915E0
8.027250342E0,2.366857052E0,2.320446014E0,1.862439990E0,3.801994835E0
8.032190573E0,2.499020100E0,2.208686113E0,1.877720952E0,3.827431486E0
8.037130342E0,2.643723965E0,1.973595023E0,1.879479051E0,3.796945512E0
8.042070264E0,2.760833979E0,1.833956957E0,1.785868049E0,3.764960433E0
8.047010034E0,2.713618040E0,1.816745043E0,1.733086944E0,3.697009031E0
8.051950034E0,2.638744116E0,1.936107993E0,1.802780986E0,3.736509595E0
8.056889967E0,2.591689110E0,2.015141964E0,1.804384947E0,3.746125280E0
8.061829967E0,2.532810926E0,1.904572964E0,1.833266973E0,3.661065031E0
8.066769721E0,2.761535883E0,1.971364021E0,1.889616966E0,3.883684953E0
8.071709644E0,2.829441071E0,1.807804942E0,1.728147984E0,3.776293280E0
8.076649644E0,2.613853931E0,1.523412943E0,1.607447982E0,3.425917159E0
8.081589418E0,2.278434992E0,1.296367049E0,1.595288038E0,3.068676826E0
8.086529418E0,1.808365941E0,1.030882001E0,1.637120962E0,2.648220180E0
8.091469341E0,1.393532991E0,8.493310213E-1,1.651152968E0,2.321551961E0
8.096409328E0,1.087641001E0,6.284509897E-1,1.746430993E0,2.151263537E0
8.101349097E0,1.040807009E0,4.358370006E-1,2.032123089E0,2.324383223E0
8.106289121E0,1.117823958E0,1.484400034E-1,2.249739885E0,2.516524267E0
8.111229044E0,1.101804972E0,-1.655460000E-1,2.344933033E0,2.596168447E0
8.116169044E0,8.976690173E-1,-3.562459946E-1,2.413065910E0,2.599155240E0
8.121108822E0,5.872160196E-1,-5.193840265E-1,2.508752108E0,2.628387254E0
8.126048822E0,3.609769940E-1,-6.554170251E-1,2.536768913E0,2.644819916E0
8.130988745E0,3.685559928E-1,-7.103779912E-1,2.538109064E0,2.661290670E0
8.135928500E0,4.876500070E-1,-6.848490238E-1,2.485764980E0,2.624089986E0
8.140868500E0,6.367800236E-1,-8.383489847E-1,2.284668922E0,2.515557573E0
8.145808193E0,9.662140012E-1,-3.815979958E-1,2.234776974E0,2.464429883E0
8.150748193E0,1.232650042E0,-2.948789895E-1,1.914069057E0,2.295656790E0
8.155688193E0,1.436388969E0,-6.600369811E-1,1.390781045E0,2.105500891E0
8.160628130E0,1.684105039E0,-4.967589974E-1,8.553779721E-1,1.953113094E0
8.165568130E0,1.962015033E0,-4.178979993E-1,1.580349952E-1,2.012241732E0
8.170507822E0,2.255629063E0,-5.861600041E-1,-4.972839952E-1,2.383010153E0
8.175447822E0,2.495990992E0,-6.877390146E-1,-1.070011020E0,2.801406712E0
8.180387591E0,2.612524986E0,-7.215790153E-1,-1.574547052E0,3.134511365E0
8.185327817E0,2.769203901E0,-7.694889903E-1,-2.010772943E0,3.507678917E0
8.190267587E0,3.061012983E0,-8.441510201E-1,-2.351836920E0,3.951395744E0
8.195207510E0,3.188242912E0,-7.950519919E-1,-2.625236034E0,4.205813212E0
8.200147279E0,3.177187920E0,-7.298240066E-1,-2.858875990E0,4.335935664E0
8.205087279E0,3.260291100E0,-7.436360121E-1,-2.998186111E0,4.491281836E0
8.210027202E0,3.273438931E0,-8.087210059E-1,-3.002655029E0,4.515015982E0
8.214967217E0,3.217190981E0,-8.701199889E-1,-2.913218975E0,4.426541697E0
8.219906986E0,3.064065933E0,-9.547830224E-1,-2.811773062E0,4.266869861E0
8.224846913E0,2.882864952E0,-1.008566976E0,-2.725311041E0,4.093340683E0
8.229786913E0,2.823175907E0,-1.031674027E0,-2.558480024E0,3.947213389E0
8.234726683E0,2.749269009E0,-1.078735948E0,-2.406470060E0,3.809625897E0
8.239666693E0,2.456105947E0,-1.163879037E0,-2.391854048E0,3.620502261E0
8.244606616E0,2.161504030E0,-1.287407041E0,-2.323868036E0,3.424891124E0
8.249546385E0,1.987267017E0,-1.272549987E0,-2.257069111E0,3.265421051E0
8.254486380E0,1.797090054E0,-1.187508941E0,-2.109726906E0,3.015071767E0
8.259426303E0,1.672238946E0,-1.114667058E0,-1.827242970E0,2.716188987E0
8.264366072E0,1.558995962E0,-1.026306987E0,-1.545799017E0,2.423482833E0
